"time in sec since January 1, 1970, 00:00:00 (UTC)",heading (degrees),roll (degrees),pitch (degrees),Gx (m/s2),Gy (m/s2),Gz (m/s2),ax (m/s2),ay (m/s2),az (m/s2),gyroscope x (deg/sec),gyroscope y (deg/sec),gyroscope z (deg/sec),magnetometer x (micro-Teslas),magnetometer y (micro-Teslas),magnetometer z (micro-Teslas),temperature celcius,quaternion x,quaternion y,quaternion z,quaternion w,heading (deg),roll (deg),pitch (deg)
1563146583.54108,0.0,0.0,0.0,0.0,0.0,0.0,0.0,0.0,0.0,-0.0022222222222222222,0.0022222222222222222,0.0011111111111111111,-14.0625,-6.75,-48.0,28,0.0,0.0,0.0,0.0,0.0,0.0,0.0
1563146583.580006,0.0,0.0,0.0,-0.06,-0.96,9.75,0.0,0.02,-0.23,-0.0011111111111111111,0.0022222222222222222,0.0,-14.0625,-6.75,-48.0,28,0.0,0.0,0.0,1.0,0.0,0.0,0.0
1563146583.618721,360.0,-0.3125,5.625,-0.06,-0.96,9.75,-0.01,0.01,-0.18,-0.0011111111111111111,0.0022222222222222222,0.0011111111111111111,-13.75,-5.25,-48.375,28,-0.0491943359375,0.00311279296875,0.0,0.998779296875,360.0,-0.3125,5.625
1563146583.66071,360.0,-0.3125,5.625,-0.06,-0.96,9.75,0.0,0.02,-0.19,-0.0011111111111111111,0.0011111111111111111,0.0,-13.75,-5.25,-48.375,28,-0.0491943359375,0.00311279296875,0.0,0.998779296875,360.0,-0.3125,5.625
1563146583.702324,360.0,-0.3125,5.625,-0.06,-0.96,9.75,0.0,0.0,-0.2,-0.0022222222222222222,0.0033333333333333335,0.0,-13.75,-4.0625,-46.0625,28,-0.0491943359375,0.00311279296875,0.0,0.998779296875,360.0,-0.3125,5.625
1563146583.742764,360.0,-0.3125,5.625,-0.06,-0.96,9.75,-0.01,0.0,-0.19,-0.0022222222222222222,0.0044444444444444444,-0.0011111111111111111,-14.0625,-5.25,-45.25,28,-0.0491943359375,0.00311279296875,0.0,0.998779296875,360.0,-0.3125,5.625
1563146583.783007,360.0,-0.3125,5.625,-0.06,-0.96,9.75,0.0,0.02,-0.19,-0.0022222222222222222,0.0011111111111111111,0.0,-14.5,-5.25,-46.875,28,-0.0491943359375,0.00311279296875,0.0,0.998779296875,360.0,-0.3125,5.625
1563146583.823067,360.0,-0.3125,5.625,-0.06,-0.96,9.75,-0.01,0.02,-0.18,-0.0022222222222222222,0.0033333333333333335,0.0011111111111111111,-14.5,-5.5625,-46.0625,28,-0.0491943359375,0.00311279296875,0.0,0.998779296875,360.0,-0.3125,5.625
1563146583.865265,360.0,-0.3125,5.625,-0.06,-0.96,9.75,0.0,0.03,-0.14,0.0,0.0044444444444444444,-0.0022222222222222222,-14.875,-6.0,-46.875,28,-0.0491943359375,0.00311279296875,0.0,0.998779296875,360.0,-0.3125,5.625
1563146583.905301,360.0,-0.3125,5.625,-0.06,-0.96,9.75,0.01,0.04,-0.21,-0.0033333333333333335,0.0033333333333333335,0.0,-14.875,-6.0,-46.875,28,-0.0491943359375,0.00311279296875,0.0,0.998779296875,360.0,-0.3125,5.625
1563146583.945776,360.0,-0.3125,5.625,-0.06,-0.96,9.75,0.0,0.02,-0.16,-0.0011111111111111111,0.0022222222222222222,0.0,-14.5,-6.0,-45.6875,28,-0.0491943359375,0.00311279296875,0.0,0.998779296875,360.0,-0.3125,5.625
1563146583.983664,360.0,-0.3125,5.625,-0.06,-0.96,9.75,0.0,0.02,-0.15,-0.0011111111111111111,0.0,-0.0011111111111111111,-13.75,-6.375,-45.6875,28,-0.0491943359375,0.00311279296875,0.0,0.998779296875,360.0,-0.3125,5.625
1563146584.022143,359.9375,-0.3125,5.625,-0.06,-0.96,9.75,0.0,0.01,-0.17,-0.0022222222222222222,0.0033333333333333335,0.0011111111111111111,-14.5,-5.25,-46.875,28,-0.0491943359375,0.00311279296875,0.0,0.998779296875,359.9375,-0.3125,5.625
1563146584.070649,359.9375,-0.3125,5.625,-0.06,-0.96,9.75,0.0,0.02,-0.17,-0.0022222222222222222,0.0,0.0011111111111111111,-14.5,-5.5625,-46.5,28,-0.0491943359375,0.00311279296875,0.0,0.998779296875,359.9375,-0.3125,5.625
1563146584.114588,359.9375,-0.3125,5.625,-0.06,-0.96,9.75,0.0,0.02,-0.13,-0.0011111111111111111,0.0044444444444444444,0.0022222222222222222,-14.5,-5.5625,-46.5,28,-0.0491943359375,0.00311279296875,0.0,0.998779296875,359.9375,-0.3125,5.625
1563146584.161156,359.9375,-0.3125,5.625,-0.06,-0.96,9.75,-0.01,0.02,-0.18,-0.0044444444444444444,0.0,0.0033333333333333335,-14.875,-4.5,-45.6875,28,-0.0491943359375,0.00311279296875,0.0,0.998779296875,359.9375,-0.3125,5.625
1563146584.203651,359.9375,-0.3125,5.625,-0.06,-0.96,9.75,0.0,0.0,-0.17,0.0011111111111111111,-0.0011111111111111111,-0.0022222222222222222,-13.75,-5.5625,-46.0625,28,-0.0491943359375,0.00311279296875,0.0,0.998779296875,359.9375,-0.3125,5.625
1563146584.243106,359.9375,-0.3125,5.625,-0.06,-0.96,9.75,0.0,0.01,-0.16,0.0,0.0,0.0,-14.5,-6.375,-44.5,28,-0.0491943359375,0.00311279296875,0.0,0.998779296875,359.9375,-0.3125,5.625
1563146584.283017,359.9375,-0.3125,5.625,-0.06,-0.96,9.75,0.0,0.02,-0.18,-0.0011111111111111111,0.0,-0.0022222222222222222,-15.5625,-5.25,-46.5,28,-0.0491943359375,0.00311279296875,0.0,0.998779296875,359.9375,-0.3125,5.625
1563146584.321694,359.9375,-0.3125,5.625,-0.06,-0.96,9.75,0.0,0.0,-0.16,-0.0022222222222222222,-0.0022222222222222222,-0.0022222222222222222,-15.25,-5.5625,-46.0625,28,-0.0491943359375,0.00311279296875,0.0,0.998779296875,359.9375,-0.3125,5.625
1563146584.36551,359.9375,-0.3125,5.625,-0.06,-0.96,9.75,0.0,0.01,-0.16,0.0,0.0011111111111111111,-0.0022222222222222222,-15.25,-5.5625,-46.0625,28,-0.0491943359375,0.00311279296875,0.0,0.998779296875,359.9375,-0.3125,5.625
1563146584.41391,359.9375,-0.3125,5.625,-0.06,-0.96,9.75,0.0,0.02,-0.17,0.0,0.0022222222222222222,0.0,-14.5,-5.5625,-45.25,28,-0.0491943359375,0.00311279296875,0.0,0.998779296875,359.9375,-0.3125,5.625
1563146584.456394,359.9375,-0.3125,5.625,-0.06,-0.96,9.75,0.0,0.01,-0.17,0.0011111111111111111,0.0,-0.0011111111111111111,-14.0625,-5.5625,-44.875,28,-0.0491943359375,0.00311279296875,0.0,0.998779296875,359.9375,-0.3125,5.625
1563146584.496024,359.9375,-0.3125,5.625,-0.06,-0.96,9.75,0.01,0.01,-0.19,-0.0011111111111111111,0.0,0.0,-13.75,-6.0,-44.875,28,-0.0491943359375,0.00311279296875,0.0,0.998779296875,359.9375,-0.3125,5.625
1563146584.536138,359.9375,-0.3125,5.625,-0.06,-0.96,9.75,0.0,0.0,-0.21,-0.0022222222222222222,0.0011111111111111111,-0.0011111111111111111,-14.5,-6.0,-46.5,28,-0.0491943359375,0.00311279296875,0.0,0.998779296875,359.9375,-0.3125,5.625
1563146584.575979,359.9375,-0.3125,5.625,-0.06,-0.96,9.75,-0.01,0.01,-0.18,-0.0011111111111111111,-0.0011111111111111111,-0.0011111111111111111,-13.75,-5.25,-46.875,28,-0.0491943359375,0.00311279296875,0.0,0.998779296875,359.9375,-0.3125,5.625
1563146584.618113,359.9375,-0.3125,5.625,-0.06,-0.96,9.75,0.01,0.02,-0.15,0.0011111111111111111,0.0011111111111111111,0.0,-15.25,-5.25,-44.875,28,-0.0491943359375,0.00311279296875,0.0,0.998779296875,359.9375,-0.3125,5.625
1563146584.662671,359.9375,-0.3125,5.625,-0.06,-0.96,9.75,0.0,0.03,-0.17,-0.0011111111111111111,0.0011111111111111111,0.0011111111111111111,-15.25,-5.25,-44.875,28,-0.0491943359375,0.00311279296875,0.0,0.998779296875,359.9375,-0.3125,5.625
1563146584.705318,359.9375,-0.3125,5.625,-0.06,-0.96,9.75,0.0,0.02,-0.14,0.0,0.0,0.0,-14.5,-6.0,-46.0625,28,-0.0491943359375,0.00311279296875,0.0,0.998779296875,359.9375,-0.3125,5.625
1563146584.744635,359.9375,-0.3125,5.625,-0.06,-0.96,9.75,0.0,0.01,-0.22,0.0,0.0,-0.0022222222222222222,-14.875,-6.0,-45.6875,28,-0.0491943359375,0.00311279296875,0.0,0.998779296875,359.9375,-0.3125,5.625
1563146584.783097,359.9375,-0.3125,5.625,-0.06,-0.96,9.75,0.01,0.02,-0.17,0.0,0.0,0.0011111111111111111,-13.75,-5.5625,-45.6875,28,-0.0491943359375,0.00311279296875,0.0,0.998779296875,359.9375,-0.3125,5.625
1563146584.823274,359.9375,-0.3125,5.625,-0.06,-0.96,9.75,-0.01,0.01,-0.14,0.0,0.0022222222222222222,0.0022222222222222222,-14.5,-5.25,-47.5625,28,-0.0491943359375,0.00311279296875,0.0,0.998779296875,359.9375,-0.3125,5.625
1563146584.865149,359.9375,-0.3125,5.625,-0.06,-0.96,9.75,0.0,0.0,-0.17,0.0,-0.0011111111111111111,0.0011111111111111111,-14.5,-5.25,-47.5625,28,-0.0491943359375,0.00311279296875,0.0,0.998779296875,359.9375,-0.3125,5.625
1563146584.90594,359.9375,-0.3125,5.625,-0.06,-0.96,9.75,0.0,0.01,-0.21,0.0,-0.0044444444444444444,0.0022222222222222222,-14.5,-5.5625,-45.6875,28,-0.0491943359375,0.00311279296875,0.0,0.998779296875,359.9375,-0.3125,5.625
1563146584.945406,359.9375,-0.3125,5.625,-0.06,-0.96,9.75,0.0,0.01,-0.18,0.0011111111111111111,0.0,0.0022222222222222222,-14.5,-6.0,-45.6875,28,-0.0491943359375,0.00311279296875,0.0,0.998779296875,359.9375,-0.3125,5.625
1563146584.983914,359.9375,-0.3125,5.625,-0.06,-0.96,9.75,0.0,0.03,-0.15,0.0,-0.0011111111111111111,0.0,-14.0625,-5.5625,-46.875,28,-0.0491943359375,0.00311279296875,0.0,0.998779296875,359.9375,-0.3125,5.625
1563146585.024041,359.9375,-0.3125,5.625,-0.06,-0.96,9.75,0.01,0.01,-0.17,0.0022222222222222222,-0.0022222222222222222,0.0011111111111111111,-13.75,-5.25,-45.6875,28,-0.0491943359375,0.00311279296875,0.0,0.998779296875,359.9375,-0.3125,5.625
1563146585.065933,359.9375,-0.3125,5.625,-0.06,-0.96,9.75,0.0,0.01,-0.18,-0.0011111111111111111,-0.0011111111111111111,0.0,-13.75,-5.25,-45.6875,28,-0.0491943359375,0.00311279296875,0.0,0.998779296875,359.9375,-0.3125,5.625
1563146585.106759,359.9375,-0.3125,5.625,-0.06,-0.96,9.75,0.0,0.01,-0.16,0.0,0.0022222222222222222,0.0011111111111111111,-13.75,-5.25,-44.875,28,-0.0491943359375,0.00311279296875,0.0,0.998779296875,359.9375,-0.3125,5.625
1563146585.146379,359.9375,-0.3125,5.625,-0.06,-0.96,9.75,-0.01,0.02,-0.19,-0.0022222222222222222,0.0011111111111111111,0.0,-13.75,-6.75,-45.25,28,-0.0491943359375,0.00311279296875,0.0,0.998779296875,359.9375,-0.3125,5.625
1563146585.184617,359.9375,-0.3125,5.625,-0.06,-0.96,9.75,0.0,0.01,-0.19,-0.0022222222222222222,-0.0011111111111111111,0.0,-14.5,-6.0,-47.25,28,-0.0491943359375,0.00311279296875,0.0,0.998779296875,359.9375,-0.3125,5.625
1563146585.22486,359.9375,-0.3125,5.625,-0.06,-0.96,9.75,-0.01,0.03,-0.18,0.0011111111111111111,0.0011111111111111111,0.0,-13.0,-5.5625,-45.6875,28,-0.0491943359375,0.00311279296875,0.0,0.998779296875,359.9375,-0.3125,5.625
1563146585.266772,359.9375,-0.3125,5.625,-0.06,-0.96,9.75,-0.01,0.01,-0.2,0.0022222222222222222,-0.0011111111111111111,0.0,-13.0,-5.5625,-45.6875,28,-0.0491943359375,0.00311279296875,0.0,0.998779296875,359.9375,-0.3125,5.625
1563146585.307642,359.9375,-0.3125,5.625,-0.06,-0.96,9.75,0.0,0.01,-0.16,0.0,0.0011111111111111111,0.0,-14.5,-6.75,-46.0625,28,-0.0491943359375,0.00311279296875,0.0,0.998779296875,359.9375,-0.3125,5.625
1563146585.34707,359.9375,-0.3125,5.625,-0.06,-0.96,9.75,0.0,0.0,-0.19,0.0022222222222222222,-0.0011111111111111111,0.0011111111111111111,-14.5,-5.25,-45.6875,28,-0.0491943359375,0.00311279296875,0.0,0.998779296875,359.9375,-0.3125,5.625
1563146585.3855,359.9375,-0.3125,5.625,-0.06,-0.96,9.75,-0.01,0.03,-0.16,0.0011111111111111111,0.0,0.0011111111111111111,-13.75,-6.0,-46.5,28,-0.0491943359375,0.00311279296875,0.0,0.998779296875,359.9375,-0.3125,5.625
1563146585.425672,359.9375,-0.3125,5.625,-0.06,-0.96,9.75,0.02,0.01,-0.18,0.0011111111111111111,0.0,0.0022222222222222222,-14.5,-5.5625,-46.0625,28,-0.0491943359375,0.00311279296875,0.0,0.998779296875,359.9375,-0.3125,5.625
1563146585.467503,359.9375,-0.3125,5.625,-0.06,-0.96,9.75,-0.01,0.01,-0.2,0.0011111111111111111,0.0,0.0,-14.5,-5.5625,-46.0625,28,-0.0491943359375,0.00311279296875,0.0,0.998779296875,359.9375,-0.3125,5.625
1563146585.508504,359.9375,-0.3125,5.625,-0.06,-0.96,9.75,0.0,0.01,-0.18,-0.0011111111111111111,-0.0011111111111111111,0.0,-13.75,-6.0,-47.25,28,-0.0491943359375,0.00311279296875,0.0,0.998779296875,359.9375,-0.3125,5.625
1563146585.547828,359.9375,-0.3125,5.625,-0.06,-0.96,9.75,0.0,0.01,-0.18,0.0,-0.0022222222222222222,0.0,-13.75,-6.0,-45.25,28,-0.0491943359375,0.00311279296875,0.0,0.998779296875,359.9375,-0.3125,5.625
1563146585.586333,359.9375,-0.3125,5.625,-0.06,-0.96,9.75,0.01,0.01,-0.18,0.0,-0.0033333333333333335,-0.0011111111111111111,-14.875,-5.5625,-46.875,28,-0.0491943359375,0.00311279296875,0.0,0.998779296875,359.9375,-0.3125,5.625
1563146585.626497,359.9375,-0.3125,5.625,-0.06,-0.96,9.75,0.0,0.0,-0.16,0.0,0.0,0.0011111111111111111,-14.0625,-5.25,-45.25,28,-0.0491943359375,0.00311279296875,0.0,0.998779296875,359.9375,-0.3125,5.625
1563146585.670051,359.9375,-0.3125,5.625,-0.06,-0.96,9.75,0.0,0.01,-0.17,0.0011111111111111111,-0.0022222222222222222,0.0011111111111111111,-14.0625,-5.25,-45.25,28,-0.0491943359375,0.00311279296875,0.0,0.998779296875,359.9375,-0.3125,5.625
1563146585.711016,359.9375,-0.3125,5.625,-0.06,-0.96,9.75,-0.01,0.01,-0.15,0.0011111111111111111,0.0,-0.0011111111111111111,-14.5,-6.0,-45.6875,28,-0.0491943359375,0.00311279296875,0.0,0.998779296875,359.9375,-0.3125,5.625
1563146585.759492,359.9375,-0.3125,5.625,-0.06,-0.96,9.75,0.0,0.01,-0.17,0.0,0.0011111111111111111,0.0,-14.0625,-5.5625,-45.6875,28,-0.0491943359375,0.00311279296875,0.0,0.998779296875,359.9375,-0.3125,5.625
1563146585.798999,359.9375,-0.3125,5.625,-0.06,-0.96,9.75,-0.01,0.02,-0.15,0.0,0.0022222222222222222,0.0011111111111111111,-14.5,-6.0,-44.5625,28,-0.0491943359375,0.00311279296875,0.0,0.998779296875,359.9375,-0.3125,5.625
1563146585.837373,359.9375,-0.3125,5.625,-0.06,-0.96,9.75,0.0,0.02,-0.16,0.0011111111111111111,0.0022222222222222222,0.0022222222222222222,-14.875,-6.0,-46.5,28,-0.0491943359375,0.00311279296875,0.0,0.998779296875,359.9375,-0.3125,5.625
1563146585.877397,359.9375,-0.3125,5.625,-0.06,-0.96,9.75,0.0,0.0,-0.16,0.0,0.0,0.0011111111111111111,-14.5,-6.0,-46.5,28,-0.0491943359375,0.00311279296875,0.0,0.998779296875,359.9375,-0.3125,5.625
1563146585.919359,359.9375,-0.3125,5.625,-0.06,-0.96,9.75,0.0,0.01,-0.18,0.0,0.0011111111111111111,-0.0022222222222222222,-14.5,-6.0,-46.5,28,-0.0491943359375,0.00311279296875,0.0,0.998779296875,359.9375,-0.3125,5.625
1563146585.960211,359.9375,-0.3125,5.625,-0.06,-0.96,9.75,-0.01,0.01,-0.16,0.0011111111111111111,0.0022222222222222222,0.0,-14.875,-6.0,-44.875,28,-0.0491943359375,0.00311279296875,0.0,0.998779296875,359.9375,-0.3125,5.625
1563146585.999743,359.9375,-0.3125,5.625,-0.06,-0.96,9.75,0.0,0.02,-0.15,0.0,0.0011111111111111111,0.0022222222222222222,-15.25,-6.375,-44.875,28,-0.0491943359375,0.00311279296875,0.0,0.998779296875,359.9375,-0.3125,5.625
1563146586.038143,359.9375,-0.3125,5.625,-0.06,-0.96,9.75,-0.01,0.01,-0.18,0.0,0.0,0.0033333333333333335,-13.75,-5.25,-46.875,28,-0.0491943359375,0.00311279296875,0.0,0.998779296875,359.9375,-0.3125,5.625
1563146586.078199,359.9375,-0.3125,5.625,-0.06,-0.96,9.75,0.0,0.01,-0.17,0.0,0.0033333333333333335,0.0,-14.5,-6.0,-46.5,28,-0.0491943359375,0.00311279296875,0.0,0.998779296875,359.9375,-0.3125,5.625
1563146586.120187,359.9375,-0.3125,5.625,-0.06,-0.96,9.75,0.01,0.02,-0.16,0.0011111111111111111,0.0011111111111111111,0.0,-14.5,-6.0,-46.5,28,-0.0491943359375,0.00311279296875,0.0,0.998779296875,359.9375,-0.3125,5.625
1563146586.16164,359.9375,-0.3125,5.625,-0.06,-0.96,9.75,-0.01,0.02,-0.16,0.0011111111111111111,0.0,0.0,-13.375,-6.0,-45.75,28,-0.0491943359375,0.00311279296875,0.0,0.998779296875,359.9375,-0.3125,5.625
1563146586.200702,359.9375,-0.3125,5.625,-0.06,-0.96,9.75,0.0,0.01,-0.19,0.0,-0.0022222222222222222,0.0011111111111111111,-14.5,-6.0,-45.25,28,-0.0491943359375,0.00311279296875,0.0,0.998779296875,359.9375,-0.3125,5.625
1563146586.23896,359.9375,-0.3125,5.625,-0.06,-0.96,9.75,0.0,0.01,-0.16,-0.0011111111111111111,-0.0011111111111111111,0.0,-14.5,-6.375,-45.6875,28,-0.0491943359375,0.00311279296875,0.0,0.998779296875,359.9375,-0.3125,5.625
1563146586.278899,359.9375,-0.3125,5.625,-0.06,-0.96,9.75,0.0,0.0,-0.19,-0.0011111111111111111,0.0,0.0011111111111111111,-14.875,-5.25,-47.25,28,-0.0491943359375,0.00311279296875,0.0,0.998779296875,359.9375,-0.3125,5.625
1563146586.320981,359.9375,-0.3125,5.625,-0.06,-0.96,9.75,-0.01,0.01,-0.16,0.0011111111111111111,-0.0011111111111111111,0.0,-14.875,-5.25,-47.25,28,-0.0491943359375,0.00311279296875,0.0,0.998779296875,359.9375,-0.3125,5.625
1563146586.361951,359.9375,-0.3125,5.625,-0.06,-0.96,9.75,0.01,0.01,-0.18,-0.0011111111111111111,-0.0022222222222222222,0.0011111111111111111,-14.5,-5.5625,-45.25,28,-0.0491943359375,0.00311279296875,0.0,0.998779296875,359.9375,-0.3125,5.625
1563146586.401354,359.9375,-0.3125,5.625,-0.06,-0.96,9.75,0.0,0.02,-0.17,-0.0011111111111111111,0.0,0.0011111111111111111,-14.5,-5.25,-45.75,28,-0.0491943359375,0.00311279296875,0.0,0.998779296875,359.9375,-0.3125,5.625
1563146586.439752,359.9375,-0.3125,5.625,-0.06,-0.96,9.75,-0.02,0.01,-0.18,-0.0011111111111111111,0.0011111111111111111,-0.0011111111111111111,-14.5,-6.0,-46.5,28,-0.0491943359375,0.00311279296875,0.0,0.998779296875,359.9375,-0.3125,5.625
1563146586.479724,359.9375,-0.3125,5.625,-0.06,-0.96,9.75,0.0,0.01,-0.17,0.0,0.0,0.0,-14.0625,-5.25,-44.875,28,-0.0491943359375,0.00311279296875,0.0,0.998779296875,359.9375,-0.3125,5.625
1563146586.521887,359.9375,-0.3125,5.625,-0.06,-0.96,9.75,0.0,0.03,-0.16,0.0,-0.0011111111111111111,0.0,-14.0625,-5.25,-44.875,28,-0.0491943359375,0.00311279296875,0.0,0.998779296875,359.9375,-0.3125,5.625
1563146586.562701,359.9375,-0.3125,5.625,-0.06,-0.96,9.75,0.0,0.02,-0.2,-0.0011111111111111111,-0.0011111111111111111,0.0,-14.5,-6.375,-45.25,28,-0.0491943359375,0.00311279296875,0.0,0.998779296875,359.9375,-0.3125,5.625
1563146586.602172,359.9375,-0.3125,5.625,-0.06,-0.96,9.75,0.0,0.02,-0.18,-0.0022222222222222222,0.0011111111111111111,0.0,-15.5625,-4.875,-46.5,28,-0.0491943359375,0.00311279296875,0.0,0.998779296875,359.9375,-0.3125,5.625
1563146586.640586,359.9375,-0.3125,5.625,-0.06,-0.96,9.75,0.0,0.01,-0.15,-0.0011111111111111111,0.0,0.0011111111111111111,-14.5,-5.5625,-45.25,28,-0.0491943359375,0.00311279296875,0.0,0.998779296875,359.9375,-0.3125,5.625
1563146586.680583,359.9375,-0.3125,5.625,-0.06,-0.96,9.75,-0.01,0.01,-0.18,-0.0011111111111111111,0.005555555555555556,-0.0022222222222222222,-13.75,-5.25,-46.0625,28,-0.0491943359375,0.00311279296875,0.0,0.998779296875,359.9375,-0.3125,5.625
1563146586.722604,359.9375,-0.3125,5.625,-0.06,-0.96,9.75,0.01,0.02,-0.18,0.0011111111111111111,-0.0011111111111111111,-0.0011111111111111111,-13.75,-5.25,-46.0625,28,-0.0491943359375,0.00311279296875,0.0,0.998779296875,359.9375,-0.3125,5.625
1563146586.763466,359.9375,-0.3125,5.625,-0.06,-0.96,9.75,-0.01,0.0,-0.19,0.0011111111111111111,0.0022222222222222222,-0.0033333333333333335,-14.5,-5.5625,-45.75,28,-0.0491943359375,0.00311279296875,0.0,0.998779296875,359.9375,-0.3125,5.625
1563146586.802992,359.9375,-0.3125,5.625,-0.06,-0.96,9.75,-0.01,0.0,-0.2,0.0,0.0011111111111111111,-0.0011111111111111111,-12.5625,-5.5625,-45.25,28,-0.0491943359375,0.00311279296875,0.0,0.998779296875,359.9375,-0.3125,5.625
1563146586.841509,359.9375,-0.3125,5.625,-0.06,-0.96,9.75,-0.01,0.0,-0.14,0.0022222222222222222,0.0022222222222222222,-0.0022222222222222222,-14.0625,-6.0,-46.5,28,-0.0491943359375,0.00311279296875,0.0,0.998779296875,359.9375,-0.3125,5.625
1563146586.881373,359.9375,-0.3125,5.625,-0.06,-0.96,9.75,0.0,0.0,-0.15,0.0011111111111111111,0.0011111111111111111,-0.0022222222222222222,-14.0625,-5.5625,-47.25,28,-0.0491943359375,0.00311279296875,0.0,0.998779296875,359.9375,-0.3125,5.625
1563146586.921623,359.9375,-0.3125,5.625,-0.06,-0.96,9.75,0.0,0.0,-0.17,0.0022222222222222222,-0.0011111111111111111,0.0,-14.0625,-5.5625,-47.25,28,-0.0491943359375,0.00311279296875,0.0,0.998779296875,359.9375,-0.3125,5.625
1563146586.957575,359.9375,-0.3125,5.625,-0.06,-0.96,9.75,0.02,0.03,-0.16,0.0,-0.0022222222222222222,-0.0011111111111111111,-14.0625,-6.0,-44.875,28,-0.0491943359375,0.00311279296875,0.0,0.998779296875,359.9375,-0.3125,5.625
1563146586.995565,359.9375,-0.3125,5.625,-0.06,-0.96,9.75,0.0,0.03,-0.18,-0.0011111111111111111,0.0,-0.0022222222222222222,-14.875,-5.5625,-46.0625,28,-0.0491943359375,0.00311279296875,0.0,0.998779296875,359.9375,-0.3125,5.625
1563146587.033884,359.9375,-0.3125,5.625,-0.06,-0.96,9.75,0.0,0.02,-0.14,0.0011111111111111111,0.0,0.0,-14.0625,-5.25,-46.875,28,-0.0491943359375,0.00311279296875,0.0,0.998779296875,359.9375,-0.3125,5.625
1563146587.075983,359.9375,-0.3125,5.625,-0.06,-0.96,9.75,-0.01,0.03,-0.14,-0.0011111111111111111,0.0011111111111111111,0.0,-14.0625,-5.25,-46.875,28,-0.0491943359375,0.00311279296875,0.0,0.998779296875,359.9375,-0.3125,5.625
1563146587.116588,359.9375,-0.3125,5.625,-0.06,-0.96,9.75,0.0,0.02,-0.15,0.0,0.0,0.0,-15.25,-5.25,-46.5,28,-0.0491943359375,0.00311279296875,0.0,0.998779296875,359.9375,-0.3125,5.625
1563146587.156241,359.9375,-0.3125,5.625,-0.06,-0.96,9.75,0.0,0.01,-0.18,0.0011111111111111111,-0.0011111111111111111,0.0,-14.5,-6.0,-46.5625,28,-0.0491943359375,0.00311279296875,0.0,0.998779296875,359.9375,-0.3125,5.625
1563146587.194554,359.9375,-0.3125,5.625,-0.06,-0.96,9.75,-0.01,0.01,-0.21,0.0022222222222222222,0.0022222222222222222,0.0,-15.5625,-6.375,-45.6875,28,-0.0491943359375,0.00311279296875,0.0,0.998779296875,359.9375,-0.3125,5.625
1563146587.232999,359.9375,-0.3125,5.625,-0.06,-0.96,9.75,0.01,0.02,-0.17,-0.0011111111111111111,-0.0044444444444444444,-0.0011111111111111111,-13.375,-6.0,-46.0625,28,-0.0491943359375,0.00311279296875,0.0,0.998779296875,359.9375,-0.3125,5.625
1563146587.274912,359.9375,-0.3125,5.625,-0.06,-0.96,9.75,0.0,0.01,-0.15,0.0,-0.0044444444444444444,0.0011111111111111111,-13.375,-6.0,-46.0625,28,-0.0491943359375,0.00311279296875,0.0,0.998779296875,359.9375,-0.3125,5.625
1563146587.315767,359.9375,-0.3125,5.625,-0.06,-0.96,9.75,0.0,0.0,-0.18,-0.0011111111111111111,-0.0033333333333333335,0.0011111111111111111,-13.375,-5.25,-44.875,28,-0.0491943359375,0.00311279296875,0.0,0.998779296875,359.9375,-0.3125,5.625
1563146587.355246,359.9375,-0.3125,5.625,-0.06,-0.96,9.75,-0.01,0.01,-0.16,0.0011111111111111111,0.0,0.0,-14.5,-4.875,-45.75,28,-0.0491943359375,0.00311279296875,0.0,0.998779296875,359.9375,-0.3125,5.625
1563146587.3936,359.9375,-0.3125,5.625,-0.06,-0.96,9.75,0.0,0.01,-0.18,0.0011111111111111111,0.0033333333333333335,-0.0022222222222222222,-14.0625,-6.0,-45.6875,28,-0.0491943359375,0.00311279296875,0.0,0.998779296875,359.9375,-0.3125,5.625
1563146587.433763,359.9375,-0.3125,5.625,-0.06,-0.96,9.75,0.0,0.03,-0.17,0.0,0.0,-0.0011111111111111111,-14.5,-5.5625,-46.0625,28,-0.0491943359375,0.00311279296875,0.0,0.998779296875,359.9375,-0.3125,5.625
1563146587.475766,359.9375,-0.3125,5.625,-0.06,-0.96,9.75,0.0,0.01,-0.15,0.0,0.0,0.0,-14.5,-5.5625,-46.0625,28,-0.0491943359375,0.00311279296875,0.0,0.998779296875,359.9375,-0.3125,5.625
1563146587.516603,359.9375,-0.3125,5.625,-0.06,-0.96,9.75,-0.01,0.03,-0.16,0.0011111111111111111,0.0,-0.0011111111111111111,-14.875,-5.25,-45.25,28,-0.0491943359375,0.00311279296875,0.0,0.998779296875,359.9375,-0.3125,5.625
1563146587.55603,359.9375,-0.3125,5.625,-0.06,-0.96,9.75,0.0,0.02,-0.16,0.0,0.0,0.0011111111111111111,-14.875,-5.5625,-45.25,28,-0.0491943359375,0.00311279296875,0.0,0.998779296875,359.9375,-0.3125,5.625
1563146587.594475,359.9375,-0.3125,5.625,-0.06,-0.96,9.75,0.0,0.01,-0.16,0.0,0.0,0.0022222222222222222,-14.875,-6.0,-45.25,28,-0.0491943359375,0.00311279296875,0.0,0.998779296875,359.9375,-0.3125,5.625
1563146587.634812,359.9375,-0.3125,5.625,-0.06,-0.96,9.75,0.0,0.01,-0.18,0.0011111111111111111,0.0011111111111111111,0.0,-14.5,-6.0,-46.875,28,-0.0491943359375,0.00311279296875,0.0,0.998779296875,359.9375,-0.3125,5.625
1563146587.678307,359.9375,-0.3125,5.625,-0.06,-0.96,9.75,0.0,0.01,-0.19,0.0,0.0,0.0,-14.5,-6.0,-46.875,28,-0.0491943359375,0.00311279296875,0.0,0.998779296875,359.9375,-0.3125,5.625
1563146587.719194,359.9375,-0.3125,5.625,-0.06,-0.96,9.75,-0.01,0.02,-0.19,0.0011111111111111111,0.0011111111111111111,-0.0022222222222222222,-14.875,-6.75,-46.0625,28,-0.0491943359375,0.00311279296875,0.0,0.998779296875,359.9375,-0.3125,5.625
1563146587.758579,359.9375,-0.3125,5.625,-0.06,-0.96,9.75,0.0,-0.01,-0.16,0.0,0.0,-0.0011111111111111111,-14.875,-5.25,-45.75,28,-0.0491943359375,0.00311279296875,0.0,0.998779296875,359.9375,-0.3125,5.625
1563146587.797076,359.9375,-0.3125,5.625,-0.06,-0.96,9.75,0.0,0.02,-0.21,-0.0011111111111111111,0.0033333333333333335,0.0011111111111111111,-14.5,-5.5625,-46.5,28,-0.0491943359375,0.00311279296875,0.0,0.998779296875,359.9375,-0.3125,5.625
1563146587.835435,359.9375,-0.3125,5.625,-0.06,-0.96,9.75,0.0,0.01,-0.18,-0.0011111111111111111,0.0022222222222222222,0.0,-14.5,-5.5625,-46.5,28,-0.0491943359375,0.00311279296875,0.0,0.998779296875,359.9375,-0.3125,5.625
1563146587.877272,359.9375,-0.3125,5.625,-0.06,-0.96,9.75,0.0,0.01,-0.15,0.0011111111111111111,-0.0011111111111111111,0.0,-14.5,-5.5625,-46.5,28,-0.0491943359375,0.00311279296875,0.0,0.998779296875,359.9375,-0.3125,5.625
1563146587.918199,359.9375,-0.3125,5.625,-0.06,-0.96,9.75,-0.01,0.02,-0.17,0.0011111111111111111,-0.0033333333333333335,0.0,-14.0625,-6.375,-46.0625,28,-0.0491943359375,0.00311279296875,0.0,0.998779296875,359.9375,-0.3125,5.625
1563146587.957619,359.9375,-0.3125,5.625,-0.06,-0.96,9.75,-0.01,0.0,-0.15,0.0011111111111111111,0.0,0.0,-14.0625,-5.25,-46.0625,28,-0.0491943359375,0.00311279296875,0.0,0.998779296875,359.9375,-0.3125,5.625
1563146587.996064,359.9375,-0.3125,5.625,-0.06,-0.96,9.75,-0.01,0.0,-0.18,0.0,0.0011111111111111111,-0.0011111111111111111,-13.375,-5.5625,-45.75,28,-0.0491943359375,0.00311279296875,0.0,0.998779296875,359.9375,-0.3125,5.625
1563146588.036229,359.9375,-0.3125,5.625,-0.06,-0.96,9.75,-0.01,0.02,-0.17,0.0,0.0,0.0,-14.5,-5.25,-46.0625,28,-0.0491943359375,0.00311279296875,0.0,0.998779296875,359.9375,-0.3125,5.625
1563146588.078247,359.9375,-0.3125,5.625,-0.06,-0.96,9.75,-0.01,0.02,-0.17,0.0,0.0,-0.0022222222222222222,-14.5,-5.25,-46.0625,28,-0.0491943359375,0.00311279296875,0.0,0.998779296875,359.9375,-0.3125,5.625
1563146588.119135,359.9375,-0.3125,5.625,-0.06,-0.96,9.75,0.0,0.03,-0.17,0.0,0.0,-0.0022222222222222222,-14.5,-5.25,-44.875,28,-0.0491943359375,0.00311279296875,0.0,0.998779296875,359.9375,-0.3125,5.625
1563146588.158459,359.9375,-0.3125,5.625,-0.06,-0.96,9.75,-0.01,0.0,-0.2,0.0,0.0033333333333333335,-0.0011111111111111111,-14.875,-6.0,-45.25,28,-0.0491943359375,0.00311279296875,0.0,0.998779296875,359.9375,-0.3125,5.625
1563146588.196919,359.9375,-0.3125,5.625,-0.06,-0.96,9.75,0.01,0.0,-0.17,0.0011111111111111111,0.0022222222222222222,0.0022222222222222222,-14.875,-5.25,-46.0625,28,-0.0491943359375,0.00311279296875,0.0,0.998779296875,359.9375,-0.3125,5.625
1563146588.237087,359.9375,-0.3125,5.625,-0.06,-0.96,9.75,0.0,0.03,-0.19,-0.0011111111111111111,0.0,0.0,-14.875,-5.25,-45.25,28,-0.0491943359375,0.00311279296875,0.0,0.998779296875,359.9375,-0.3125,5.625
1563146588.278987,359.9375,-0.3125,5.625,-0.06,-0.96,9.75,0.0,0.0,-0.16,-0.0011111111111111111,0.0033333333333333335,-0.0011111111111111111,-14.875,-5.25,-45.25,28,-0.0491943359375,0.00311279296875,0.0,0.998779296875,359.9375,-0.3125,5.625
1563146588.319857,359.9375,-0.3125,5.625,-0.06,-0.96,9.75,-0.01,0.0,-0.15,0.0,0.0022222222222222222,0.0022222222222222222,-14.875,-5.25,-46.875,28,-0.0491943359375,0.00311279296875,0.0,0.998779296875,359.9375,-0.3125,5.625
1563146588.35933,359.9375,-0.3125,5.625,-0.06,-0.96,9.75,0.0,0.01,-0.16,-0.0011111111111111111,0.0022222222222222222,0.0022222222222222222,-13.375,-6.375,-46.5,28,-0.0491943359375,0.00311279296875,0.0,0.998779296875,359.9375,-0.3125,5.625
1563146588.397727,359.9375,-0.3125,5.625,-0.06,-0.96,9.75,-0.01,0.01,-0.17,0.0011111111111111111,0.0,0.0,-15.25,-5.25,-46.875,28,-0.0491943359375,0.00311279296875,0.0,0.998779296875,359.9375,-0.3125,5.625
1563146588.437891,359.9375,-0.3125,5.625,-0.06,-0.96,9.75,-0.01,0.01,-0.17,0.0,0.0044444444444444444,0.0,-14.5,-5.5625,-45.75,28,-0.0491943359375,0.00311279296875,0.0,0.998779296875,359.9375,-0.3125,5.625
1563146588.479823,359.9375,-0.3125,5.625,-0.06,-0.96,9.75,0.0,0.03,-0.16,0.0011111111111111111,0.0011111111111111111,0.0011111111111111111,-14.5,-5.5625,-45.75,28,-0.0491943359375,0.00311279296875,0.0,0.998779296875,359.9375,-0.3125,5.625
1563146588.520737,359.9375,-0.3125,5.625,-0.06,-0.96,9.75,0.0,0.02,-0.17,0.0011111111111111111,0.0022222222222222222,0.0,-15.25,-6.0,-46.0625,28,-0.0491943359375,0.00311279296875,0.0,0.998779296875,359.9375,-0.3125,5.625
1563146588.560122,359.9375,-0.3125,5.625,-0.06,-0.96,9.75,0.0,0.01,-0.19,0.0022222222222222222,0.0011111111111111111,-0.0033333333333333335,-15.5625,-5.25,-45.25,28,-0.0491943359375,0.00311279296875,0.0,0.998779296875,359.9375,-0.3125,5.625
1563146588.598459,359.9375,-0.3125,5.625,-0.06,-0.96,9.75,0.0,0.02,-0.17,0.0011111111111111111,0.0,0.0011111111111111111,-14.875,-5.25,-45.25,28,-0.0491943359375,0.00311279296875,0.0,0.998779296875,359.9375,-0.3125,5.625
1563146588.638784,359.9375,-0.3125,5.625,-0.06,-0.96,9.75,0.01,0.01,-0.16,0.0022222222222222222,-0.0011111111111111111,0.0,-14.875,-5.25,-46.5,28,-0.0491943359375,0.00311279296875,0.0,0.998779296875,359.9375,-0.3125,5.625
1563146588.682466,359.9375,-0.3125,5.625,-0.06,-0.96,9.75,-0.01,0.01,-0.18,-0.0011111111111111111,-0.0011111111111111111,0.0022222222222222222,-14.875,-5.25,-46.5,28,-0.0491943359375,0.00311279296875,0.0,0.998779296875,359.9375,-0.3125,5.625
1563146588.72332,359.9375,-0.3125,5.625,-0.06,-0.96,9.75,0.0,0.01,-0.18,-0.0022222222222222222,-0.0011111111111111111,-0.0022222222222222222,-15.5625,-5.25,-46.5,28,-0.0491943359375,0.00311279296875,0.0,0.998779296875,359.9375,-0.3125,5.625
1563146588.762727,359.9375,-0.3125,5.625,-0.06,-0.96,9.75,-0.01,0.01,-0.16,-0.0011111111111111111,-0.0011111111111111111,-0.0011111111111111111,-14.0625,-6.0,-46.0625,28,-0.0491943359375,0.00311279296875,0.0,0.998779296875,359.9375,-0.3125,5.625
1563146588.801213,359.9375,-0.3125,5.625,-0.06,-0.96,9.75,0.0,0.02,-0.21,-0.0022222222222222222,-0.0011111111111111111,-0.0011111111111111111,-14.5,-4.875,-46.0625,28,-0.0491943359375,0.00311279296875,0.0,0.998779296875,359.9375,-0.3125,5.625
1563146588.839525,359.9375,-0.3125,5.625,-0.06,-0.96,9.75,0.0,0.03,-0.18,-0.0011111111111111111,-0.0011111111111111111,-0.0011111111111111111,-14.5,-6.0,-46.0625,28,-0.0491943359375,0.00311279296875,0.0,0.998779296875,359.9375,-0.3125,5.625
1563146588.881414,359.9375,-0.3125,5.625,-0.06,-0.96,9.75,0.0,0.03,-0.16,-0.0011111111111111111,0.0,-0.0022222222222222222,-14.5,-6.0,-46.0625,28,-0.0491943359375,0.00311279296875,0.0,0.998779296875,359.9375,-0.3125,5.625
1563146588.922633,359.9375,-0.3125,5.625,-0.06,-0.96,9.75,0.01,0.01,-0.18,0.0,0.0,0.0011111111111111111,-14.5,-6.0,-46.0625,28,-0.0491943359375,0.00311279296875,0.0,0.998779296875,359.9375,-0.3125,5.625
1563146588.961861,359.9375,-0.3125,5.625,-0.06,-0.96,9.75,0.01,0.01,-0.21,0.0,-0.0011111111111111111,0.0,-14.5,-5.5625,-46.5,28,-0.0491943359375,0.00311279296875,0.0,0.998779296875,359.9375,-0.3125,5.625
1563146589.000213,359.9375,-0.3125,5.625,-0.06,-0.96,9.75,0.0,0.01,-0.19,0.0,-0.0011111111111111111,-0.0011111111111111111,-14.5,-5.25,-46.5,28,-0.0491943359375,0.00311279296875,0.0,0.998779296875,359.9375,-0.3125,5.625
1563146589.040381,359.9375,-0.3125,5.625,-0.06,-0.96,9.75,0.0,0.01,-0.17,0.0,0.0011111111111111111,0.0,-14.875,-5.25,-46.5,28,-0.0491943359375,0.00311279296875,0.0,0.998779296875,359.9375,-0.3125,5.625
1563146589.082329,359.9375,-0.3125,5.625,-0.06,-0.96,9.75,0.0,0.02,-0.17,-0.0011111111111111111,-0.0022222222222222222,0.0022222222222222222,-14.875,-5.25,-46.5,28,-0.0491943359375,0.00311279296875,0.0,0.998779296875,359.9375,-0.3125,5.625
1563146589.123278,359.9375,-0.3125,5.625,-0.06,-0.96,9.75,0.0,0.01,-0.2,0.0022222222222222222,-0.0011111111111111111,-0.0022222222222222222,-14.875,-5.5625,-45.75,28,-0.0491943359375,0.00311279296875,0.0,0.998779296875,359.9375,-0.3125,5.625
1563146589.162674,359.9375,-0.3125,5.625,-0.06,-0.96,9.75,0.0,0.0,-0.15,0.0,0.0,-0.0011111111111111111,-14.0625,-6.0,-46.0625,28,-0.0491943359375,0.00311279296875,0.0,0.998779296875,359.9375,-0.3125,5.625
1563146589.201075,359.9375,-0.3125,5.625,-0.06,-0.96,9.75,0.0,0.01,-0.19,0.0011111111111111111,0.0011111111111111111,0.0,-14.5,-5.25,-46.0625,28,-0.0491943359375,0.00311279296875,0.0,0.998779296875,359.9375,-0.3125,5.625
1563146589.241239,359.9375,-0.3125,5.625,-0.06,-0.96,9.75,0.0,0.01,-0.15,-0.0011111111111111111,0.0011111111111111111,0.0011111111111111111,-14.0625,-5.5625,-46.5,28,-0.0491943359375,0.00311279296875,0.0,0.998779296875,359.9375,-0.3125,5.625
1563146589.283145,359.9375,-0.3125,5.625,-0.06,-0.96,9.75,-0.01,0.01,-0.16,0.0022222222222222222,-0.0033333333333333335,0.0011111111111111111,-14.0625,-5.5625,-46.5,28,-0.0491943359375,0.00311279296875,0.0,0.998779296875,359.9375,-0.3125,5.625
1563146589.324097,359.9375,-0.3125,5.625,-0.06,-0.96,9.75,0.0,0.03,-0.2,0.0,0.0033333333333333335,0.0011111111111111111,-14.875,-5.5625,-46.5,28,-0.0491943359375,0.00311279296875,0.0,0.998779296875,359.9375,-0.3125,5.625
1563146589.363398,359.9375,-0.3125,5.625,-0.06,-0.96,9.75,0.0,0.01,-0.18,-0.0011111111111111111,-0.0011111111111111111,0.0033333333333333335,-15.25,-5.5625,-46.875,28,-0.0491943359375,0.00311279296875,0.0,0.998779296875,359.9375,-0.3125,5.625
1563146589.401834,359.9375,-0.3125,5.625,-0.06,-0.96,9.75,0.01,0.0,-0.17,-0.0011111111111111111,-0.0011111111111111111,0.0011111111111111111,-14.0625,-5.25,-46.0625,28,-0.0491943359375,0.00311279296875,0.0,0.998779296875,359.9375,-0.3125,5.625
1563146589.442012,359.9375,-0.3125,5.625,-0.06,-0.96,9.75,0.0,0.02,-0.14,0.0,0.0022222222222222222,0.0022222222222222222,-14.0625,-5.5625,-47.25,28,-0.0491943359375,0.00311279296875,0.0,0.998779296875,359.9375,-0.3125,5.625
1563146589.483868,359.9375,-0.3125,5.625,-0.06,-0.96,9.75,0.0,0.01,-0.17,0.0,0.0022222222222222222,-0.0011111111111111111,-14.0625,-5.5625,-47.25,28,-0.0491943359375,0.00311279296875,0.0,0.998779296875,359.9375,-0.3125,5.625
1563146589.524913,359.9375,-0.3125,5.625,-0.06,-0.96,9.75,0.0,0.01,-0.16,0.0,0.0033333333333333335,-0.0011111111111111111,-15.25,-5.5625,-45.75,28,-0.0491943359375,0.00311279296875,0.0,0.998779296875,359.9375,-0.3125,5.625
1563146589.564226,359.9375,-0.3125,5.625,-0.06,-0.96,9.75,0.0,0.01,-0.17,0.0022222222222222222,-0.0022222222222222222,0.0011111111111111111,-14.0625,-5.25,-46.0625,28,-0.0491943359375,0.00311279296875,0.0,0.998779296875,359.9375,-0.3125,5.625
1563146589.602721,359.9375,-0.3125,5.625,-0.06,-0.96,9.75,0.0,0.03,-0.14,-0.0011111111111111111,0.0033333333333333335,0.0011111111111111111,-14.0625,-5.5625,-46.5,28,-0.0491943359375,0.00311279296875,0.0,0.998779296875,359.9375,-0.3125,5.625
1563146589.642949,359.9375,-0.3125,5.625,-0.06,-0.96,9.75,0.0,0.01,-0.14,0.0,-0.0011111111111111111,-0.0011111111111111111,-14.875,-4.875,-46.5,28,-0.0491943359375,0.00311279296875,0.0,0.998779296875,359.9375,-0.3125,5.625
1563146589.686529,359.9375,-0.3125,5.625,-0.06,-0.96,9.75,0.0,0.02,-0.17,0.0,0.0,0.0011111111111111111,-14.875,-4.875,-46.5,28,-0.0491943359375,0.00311279296875,0.0,0.998779296875,359.9375,-0.3125,5.625
1563146589.727505,359.9375,-0.3125,5.625,-0.06,-0.96,9.75,-0.01,0.0,-0.17,0.0011111111111111111,-0.0011111111111111111,0.0011111111111111111,-13.75,-5.25,-45.75,28,-0.0491943359375,0.00311279296875,0.0,0.998779296875,359.9375,-0.3125,5.625
1563146589.766784,359.9375,-0.3125,5.625,-0.06,-0.96,9.75,0.0,0.0,-0.18,0.0,-0.0022222222222222222,0.0,-14.875,-5.25,-46.875,28,-0.0491943359375,0.00311279296875,0.0,0.998779296875,359.9375,-0.3125,5.625
1563146589.805239,359.9375,-0.3125,5.625,-0.06,-0.96,9.75,0.0,0.02,-0.2,0.0,0.0,0.0011111111111111111,-14.0625,-5.5625,-45.375,28,-0.0491943359375,0.00311279296875,0.0,0.998779296875,359.9375,-0.3125,5.625
1563146589.843729,359.9375,-0.3125,5.625,-0.06,-0.96,9.75,0.01,0.02,-0.15,0.0,0.0,0.0,-14.0625,-6.75,-47.6875,28,-0.0491943359375,0.00311279296875,0.0,0.998779296875,359.9375,-0.3125,5.625
1563146589.885547,359.9375,-0.3125,5.625,-0.06,-0.96,9.75,0.02,0.03,-0.16,-0.0011111111111111111,-0.0022222222222222222,0.0011111111111111111,-14.0625,-6.75,-47.6875,28,-0.0491943359375,0.00311279296875,0.0,0.998779296875,359.9375,-0.3125,5.625
1563146589.926597,359.9375,-0.3125,5.625,-0.06,-0.96,9.75,0.0,0.05,-0.17,0.0022222222222222222,-0.0011111111111111111,-0.0011111111111111111,-13.75,-5.5625,-46.0625,28,-0.0491943359375,0.00311279296875,0.0,0.998779296875,359.9375,-0.3125,5.625
1563146589.965897,359.9375,-0.3125,5.625,-0.06,-0.96,9.75,0.0,0.01,-0.16,-0.0011111111111111111,0.0,0.0022222222222222222,-14.875,-5.5625,-45.75,28,-0.0491943359375,0.00311279296875,0.0,0.998779296875,359.9375,-0.3125,5.625
1563146590.004377,359.9375,-0.3125,5.625,-0.06,-0.96,9.75,0.0,0.01,-0.18,0.0022222222222222222,0.0011111111111111111,-0.0011111111111111111,-14.875,-4.875,-47.25,28,-0.0491943359375,0.00311279296875,0.0,0.998779296875,359.9375,-0.3125,5.625
1563146590.044497,359.9375,-0.3125,5.625,-0.06,-0.96,9.75,0.0,0.0,-0.19,0.0011111111111111111,0.0,-0.0011111111111111111,-13.75,-6.375,-46.5625,28,-0.0491943359375,0.00311279296875,0.0,0.998779296875,359.9375,-0.3125,5.625
1563146590.086353,359.9375,-0.3125,5.625,-0.06,-0.96,9.75,0.01,0.01,-0.17,0.0022222222222222222,0.0,-0.0011111111111111111,-13.75,-6.375,-46.5625,28,-0.0491943359375,0.00311279296875,0.0,0.998779296875,359.9375,-0.3125,5.625
1563146590.127424,359.9375,-0.3125,5.625,-0.06,-0.96,9.75,0.0,0.0,-0.18,0.0022222222222222222,-0.0022222222222222222,0.0011111111111111111,-14.875,-6.0,-46.5,28,-0.0491943359375,0.00311279296875,0.0,0.998779296875,359.9375,-0.3125,5.625
1563146590.166712,359.9375,-0.3125,5.625,-0.06,-0.96,9.75,-0.01,0.0,-0.18,0.0022222222222222222,0.0011111111111111111,0.0011111111111111111,-14.875,-5.5625,-46.0625,28,-0.0491943359375,0.00311279296875,0.0,0.998779296875,359.9375,-0.3125,5.625
1563146590.205111,359.9375,-0.3125,5.625,-0.06,-0.96,9.75,0.0,0.01,-0.18,-0.0011111111111111111,0.0,-0.0011111111111111111,-14.5,-6.0,-47.6875,28,-0.0491943359375,0.00311279296875,0.0,0.998779296875,359.9375,-0.3125,5.625
1563146590.245298,359.9375,-0.3125,5.625,-0.06,-0.96,9.75,0.0,0.01,-0.22,-0.0011111111111111111,-0.0011111111111111111,0.0,-14.5,-5.25,-47.25,28,-0.0491943359375,0.00311279296875,0.0,0.998779296875,359.9375,-0.3125,5.625
1563146590.287357,359.9375,-0.3125,5.625,-0.06,-0.96,9.75,0.0,0.01,-0.18,-0.0011111111111111111,-0.0011111111111111111,0.0,-14.5,-5.25,-47.25,28,-0.0491943359375,0.00311279296875,0.0,0.998779296875,359.9375,-0.3125,5.625
1563146590.328178,359.9375,-0.3125,5.625,-0.06,-0.96,9.75,0.0,0.01,-0.16,0.0,-0.0022222222222222222,0.0011111111111111111,-14.0625,-6.0,-45.75,28,-0.0491943359375,0.00311279296875,0.0,0.998779296875,359.9375,-0.3125,5.625
1563146590.367468,359.9375,-0.3125,5.625,-0.06,-0.96,9.75,-0.01,0.02,-0.19,0.0011111111111111111,0.0011111111111111111,0.0011111111111111111,-14.5,-5.5625,-45.75,28,-0.0491943359375,0.00311279296875,0.0,0.998779296875,359.9375,-0.3125,5.625
1563146590.405914,359.9375,-0.3125,5.625,-0.06,-0.96,9.75,0.0,0.01,-0.18,0.0022222222222222222,-0.0022222222222222222,0.0022222222222222222,-14.5,-6.0,-46.0625,28,-0.0491943359375,0.00311279296875,0.0,0.998779296875,359.9375,-0.3125,5.625
1563146590.446122,359.9375,-0.3125,5.625,-0.06,-0.96,9.75,0.0,0.03,-0.14,-0.0011111111111111111,0.0,0.0,-14.0625,-5.5625,-46.875,28,-0.0491943359375,0.00311279296875,0.0,0.998779296875,359.9375,-0.3125,5.625
1563146590.487984,359.9375,-0.3125,5.625,-0.06,-0.96,9.75,-0.01,0.01,-0.2,0.0011111111111111111,0.0011111111111111111,0.0011111111111111111,-14.0625,-5.5625,-46.875,28,-0.0491943359375,0.00311279296875,0.0,0.998779296875,359.9375,-0.3125,5.625
1563146590.528828,359.9375,-0.3125,5.625,-0.06,-0.96,9.75,0.0,0.01,-0.16,0.0,-0.0033333333333333335,0.0011111111111111111,-14.875,-6.0,-44.5625,28,-0.0491943359375,0.00311279296875,0.0,0.998779296875,359.9375,-0.3125,5.625
1563146590.568302,359.9375,-0.3125,5.625,-0.06,-0.96,9.75,0.01,0.01,-0.16,-0.0011111111111111111,-0.0011111111111111111,0.0,-15.25,-6.375,-45.375,28,-0.0491943359375,0.00311279296875,0.0,0.998779296875,359.9375,-0.3125,5.625
1563146590.606774,359.9375,-0.3125,5.625,-0.06,-0.96,9.75,-0.01,0.04,-0.15,0.0,-0.0011111111111111111,0.0,-14.5,-5.5625,-45.375,28,-0.0491943359375,0.00311279296875,0.0,0.998779296875,359.9375,-0.3125,5.625
1563146590.646924,359.9375,-0.3125,5.625,-0.06,-0.96,9.75,0.0,0.01,-0.17,0.0022222222222222222,0.0,-0.0011111111111111111,-13.75,-6.0,-46.5625,28,-0.0491943359375,0.00311279296875,0.0,0.998779296875,359.9375,-0.3125,5.625
1563146590.690578,359.9375,-0.3125,5.625,-0.06,-0.96,9.75,0.0,0.0,-0.17,0.0,-0.0011111111111111111,0.0,-13.75,-6.0,-46.5625,28,-0.0491943359375,0.00311279296875,0.0,0.998779296875,359.9375,-0.3125,5.625
1563146590.731523,359.9375,-0.3125,5.625,-0.06,-0.96,9.75,-0.01,0.0,-0.15,-0.0011111111111111111,0.0011111111111111111,0.0011111111111111111,-15.25,-6.0,-46.0625,28,-0.0491943359375,0.00311279296875,0.0,0.998779296875,359.9375,-0.3125,5.625
1563146590.770898,359.9375,-0.3125,5.625,-0.06,-0.96,9.75,0.0,0.01,-0.17,0.0,0.0033333333333333335,0.0,-14.0625,-6.0,-46.0625,28,-0.0491943359375,0.00311279296875,0.0,0.998779296875,359.9375,-0.3125,5.625
1563146590.809312,359.9375,-0.3125,5.625,-0.06,-0.96,9.75,0.0,0.0,-0.2,0.0022222222222222222,-0.0022222222222222222,-0.0011111111111111111,-14.0625,-6.75,-44.875,28,-0.0491943359375,0.00311279296875,0.0,0.998779296875,359.9375,-0.3125,5.625
1563146590.847683,359.9375,-0.3125,5.625,-0.06,-0.96,9.75,0.0,0.01,-0.18,0.0011111111111111111,0.0011111111111111111,0.0,-13.75,-6.0,-46.875,28,-0.0491943359375,0.00311279296875,0.0,0.998779296875,359.9375,-0.3125,5.625
1563146590.893527,359.9375,-0.3125,5.625,-0.06,-0.96,9.75,0.0,0.01,-0.17,-0.0011111111111111111,-0.0011111111111111111,0.0,-15.25,-5.5625,-45.75,28,-0.0491943359375,0.00311279296875,0.0,0.998779296875,359.9375,-0.3125,5.625
1563146590.93795,359.9375,-0.3125,5.625,-0.06,-0.96,9.75,0.01,0.03,-0.15,0.0,0.0022222222222222222,0.0,-15.25,-5.5625,-45.75,28,-0.0491943359375,0.00311279296875,0.0,0.998779296875,359.9375,-0.3125,5.625
1563146590.973893,359.9375,-0.3125,5.625,-0.06,-0.96,9.75,0.0,0.0,-0.18,0.0,0.0,0.0,-14.5,-5.5625,-46.0625,28,-0.0491943359375,0.00311279296875,0.0,0.998779296875,359.9375,-0.3125,5.625
1563146591.011853,359.9375,-0.3125,5.625,-0.06,-0.96,9.75,0.0,0.03,-0.18,0.0,-0.0022222222222222222,0.0,-14.0625,-5.5625,-46.5,28,-0.0491943359375,0.00311279296875,0.0,0.998779296875,359.9375,-0.3125,5.625
1563146591.050196,359.9375,-0.3125,5.625,-0.06,-0.96,9.75,0.01,0.02,-0.18,-0.0011111111111111111,0.0011111111111111111,0.0022222222222222222,-13.75,-4.875,-46.5,28,-0.0491943359375,0.00311279296875,0.0,0.998779296875,359.9375,-0.3125,5.625
1563146591.090357,359.9375,-0.3125,5.625,-0.06,-0.96,9.75,-0.01,0.01,-0.18,0.0,-0.0022222222222222222,-0.0011111111111111111,-13.75,-4.875,-46.5,28,-0.0491943359375,0.00311279296875,0.0,0.998779296875,359.9375,-0.3125,5.625
1563146591.131224,359.9375,-0.3125,5.625,-0.06,-0.96,9.75,0.0,0.01,-0.18,0.0,0.0,-0.0011111111111111111,-14.5,-5.25,-46.5,28,-0.0491943359375,0.00311279296875,0.0,0.998779296875,359.9375,-0.3125,5.625
1563146591.17073,359.9375,-0.3125,5.625,-0.06,-0.96,9.75,-0.01,0.01,-0.18,0.0,0.0011111111111111111,0.0,-14.0625,-6.0,-45.75,28,-0.0491943359375,0.00311279296875,0.0,0.998779296875,359.9375,-0.3125,5.625
1563146591.209141,359.9375,-0.3125,5.625,-0.06,-0.96,9.75,0.0,0.02,-0.18,-0.0022222222222222222,0.0022222222222222222,-0.0011111111111111111,-15.25,-5.25,-46.875,28,-0.0491943359375,0.00311279296875,0.0,0.998779296875,359.9375,-0.3125,5.625
1563146591.249332,359.9375,-0.3125,5.625,-0.06,-0.96,9.75,0.0,0.01,-0.17,0.0011111111111111111,0.0011111111111111111,-0.0022222222222222222,-14.0625,-6.0,-46.5,28,-0.0491943359375,0.00311279296875,0.0,0.998779296875,359.9375,-0.3125,5.625
1563146591.291268,359.9375,-0.3125,5.625,-0.06,-0.96,9.75,-0.01,0.01,-0.16,0.0011111111111111111,0.0033333333333333335,-0.0022222222222222222,-14.0625,-6.0,-46.5,28,-0.0491943359375,0.00311279296875,0.0,0.998779296875,359.9375,-0.3125,5.625
1563146591.332104,359.9375,-0.3125,5.625,-0.06,-0.96,9.75,0.0,0.01,-0.17,0.0011111111111111111,0.0011111111111111111,-0.0011111111111111111,-15.25,-5.5625,-46.5,28,-0.0491943359375,0.00311279296875,0.0,0.998779296875,359.9375,-0.3125,5.625
1563146591.371538,359.9375,-0.3125,5.625,-0.06,-0.96,9.75,0.01,0.02,-0.19,0.0,0.0,0.0011111111111111111,-14.875,-5.25,-46.0625,28,-0.0491943359375,0.00311279296875,0.0,0.998779296875,359.9375,-0.3125,5.625
1563146591.409966,359.9375,-0.3125,5.625,-0.06,-0.96,9.75,0.0,0.01,-0.19,0.0,0.0,-0.0022222222222222222,-14.0625,-6.0,-46.0625,28,-0.0491943359375,0.00311279296875,0.0,0.998779296875,359.9375,-0.3125,5.625
1563146591.450131,359.9375,-0.3125,5.625,-0.06,-0.96,9.75,0.01,0.02,-0.17,-0.0011111111111111111,0.0011111111111111111,-0.0011111111111111111,-14.0625,-6.0,-45.75,28,-0.0491943359375,0.00311279296875,0.0,0.998779296875,359.9375,-0.3125,5.625
1563146591.492041,359.9375,-0.3125,5.625,-0.06,-0.96,9.75,0.0,0.02,-0.16,0.0,0.0033333333333333335,-0.0011111111111111111,-14.0625,-6.0,-45.75,28,-0.0491943359375,0.00311279296875,0.0,0.998779296875,359.9375,-0.3125,5.625
1563146591.532914,359.9375,-0.3125,5.625,-0.06,-0.96,9.75,0.0,0.01,-0.19,0.0022222222222222222,-0.0011111111111111111,-0.0011111111111111111,-13.375,-5.5625,-45.75,28,-0.0491943359375,0.00311279296875,0.0,0.998779296875,359.9375,-0.3125,5.625
1563146591.572344,359.9375,-0.3125,5.625,-0.06,-0.96,9.75,-0.01,0.02,-0.17,0.0011111111111111111,0.0011111111111111111,-0.0022222222222222222,-14.875,-6.0,-45.75,28,-0.0491943359375,0.00311279296875,0.0,0.998779296875,359.9375,-0.3125,5.625
1563146591.610757,359.9375,-0.3125,5.625,-0.06,-0.96,9.75,0.01,0.01,-0.2,-0.0011111111111111111,0.0,0.0,-14.0625,-5.5625,-45.75,28,-0.0491943359375,0.00311279296875,0.0,0.998779296875,359.9375,-0.3125,5.625
1563146591.650817,359.9375,-0.3125,5.625,-0.06,-0.96,9.75,0.0,0.01,-0.18,0.0,0.0,0.0,-14.5,-5.5625,-46.0625,28,-0.0491943359375,0.00311279296875,0.0,0.998779296875,359.9375,-0.3125,5.625
1563146591.692853,359.9375,-0.3125,5.625,-0.06,-0.96,9.75,-0.01,0.03,-0.17,0.0,0.0011111111111111111,-0.0022222222222222222,-14.5,-5.5625,-46.0625,28,-0.0491943359375,0.00311279296875,0.0,0.998779296875,359.9375,-0.3125,5.625
1563146591.733672,359.9375,-0.3125,5.625,-0.06,-0.96,9.75,-0.01,0.01,-0.15,0.0,0.0,0.0,-14.875,-5.25,-46.0625,28,-0.0491943359375,0.00311279296875,0.0,0.998779296875,359.9375,-0.3125,5.625
1563146591.773031,359.9375,-0.3125,5.625,-0.06,-0.96,9.75,-0.02,0.02,-0.16,0.0,0.0,0.0,-13.375,-5.5625,-45.75,28,-0.0491943359375,0.00311279296875,0.0,0.998779296875,359.9375,-0.3125,5.625
1563146591.811476,359.9375,-0.3125,5.625,-0.06,-0.96,9.75,0.0,0.02,-0.15,0.0011111111111111111,0.0022222222222222222,0.0011111111111111111,-14.0625,-5.25,-47.25,28,-0.0491943359375,0.00311279296875,0.0,0.998779296875,359.9375,-0.3125,5.625
1563146591.851712,359.9375,-0.3125,5.625,-0.06,-0.96,9.75,-0.01,0.01,-0.19,0.0,0.0033333333333333335,0.0,-14.875,-6.0,-45.375,28,-0.0491943359375,0.00311279296875,0.0,0.998779296875,359.9375,-0.3125,5.625
1563146591.893445,359.9375,-0.3125,5.625,-0.06,-0.96,9.75,-0.01,0.02,-0.18,0.0011111111111111111,-0.0011111111111111111,0.0011111111111111111,-14.875,-6.0,-45.375,28,-0.0491943359375,0.00311279296875,0.0,0.998779296875,359.9375,-0.3125,5.625
1563146591.934508,359.9375,-0.3125,5.625,-0.06,-0.96,9.75,0.0,0.02,-0.19,0.0,0.0033333333333333335,0.0,-14.875,-5.25,-46.0625,28,-0.0491943359375,0.00311279296875,0.0,0.998779296875,359.9375,-0.3125,5.625
1563146591.973959,359.9375,-0.3125,5.625,-0.06,-0.96,9.75,0.0,0.01,-0.2,0.0011111111111111111,-0.0011111111111111111,0.0,-13.375,-5.5625,-46.0625,28,-0.0491943359375,0.00311279296875,0.0,0.998779296875,359.9375,-0.3125,5.625
1563146592.012362,359.9375,-0.3125,5.625,-0.06,-0.96,9.75,0.0,0.01,-0.18,0.0,0.0022222222222222222,0.0022222222222222222,-14.875,-5.5625,-45.375,28,-0.0491943359375,0.00311279296875,0.0,0.998779296875,359.9375,-0.3125,5.625
1563146592.052599,359.9375,-0.3125,5.625,-0.06,-0.96,9.75,0.0,0.02,-0.17,0.0011111111111111111,-0.0022222222222222222,0.0,-14.5,-6.375,-47.25,28,-0.0491943359375,0.00311279296875,0.0,0.998779296875,359.9375,-0.3125,5.625
1563146592.094442,359.9375,-0.3125,5.625,-0.06,-0.96,9.75,0.01,0.02,-0.15,0.0,0.0044444444444444444,0.0033333333333333335,-14.5,-6.375,-47.25,28,-0.0491943359375,0.00311279296875,0.0,0.998779296875,359.9375,-0.3125,5.625
1563146592.135259,359.9375,-0.3125,5.625,-0.06,-0.96,9.75,-0.01,0.03,-0.19,0.0,-0.0011111111111111111,0.0,-14.0625,-5.25,-45.375,28,-0.0491943359375,0.00311279296875,0.0,0.998779296875,359.9375,-0.3125,5.625
1563146592.174734,359.9375,-0.3125,5.625,-0.06,-0.96,9.75,0.0,0.01,-0.21,0.0011111111111111111,-0.0022222222222222222,0.0,-14.875,-6.0,-45.75,28,-0.0491943359375,0.00311279296875,0.0,0.998779296875,359.9375,-0.3125,5.625
1563146592.213181,359.9375,-0.3125,5.625,-0.06,-0.96,9.75,0.02,0.03,-0.19,-0.0011111111111111111,0.0,0.0011111111111111111,-15.25,-6.0,-46.875,28,-0.0491943359375,0.00311279296875,0.0,0.998779296875,359.9375,-0.3125,5.625
1563146592.253363,359.9375,-0.3125,5.625,-0.06,-0.96,9.75,0.0,0.0,-0.15,0.0011111111111111111,0.0011111111111111111,-0.0011111111111111111,-14.0625,-5.25,-45.75,28,-0.0491943359375,0.00311279296875,0.0,0.998779296875,359.9375,-0.3125,5.625
1563146592.295325,359.9375,-0.3125,5.625,-0.06,-0.96,9.75,0.0,0.01,-0.19,0.0011111111111111111,0.0011111111111111111,0.0011111111111111111,-14.0625,-5.25,-45.75,28,-0.0491943359375,0.00311279296875,0.0,0.998779296875,359.9375,-0.3125,5.625
1563146592.336243,359.9375,-0.3125,5.625,-0.06,-0.96,9.75,0.0,0.03,-0.19,-0.0011111111111111111,0.0022222222222222222,-0.0011111111111111111,-14.5,-5.25,-45.75,28,-0.0491943359375,0.00311279296875,0.0,0.998779296875,359.9375,-0.3125,5.625
1563146592.375587,359.9375,-0.3125,5.625,-0.06,-0.96,9.75,-0.01,0.0,-0.19,0.0,0.0033333333333333335,0.0,-14.0625,-5.5625,-45.75,28,-0.0491943359375,0.00311279296875,0.0,0.998779296875,359.9375,-0.3125,5.625
1563146592.414038,359.9375,-0.3125,5.625,-0.06,-0.96,9.75,-0.01,0.0,-0.18,0.0033333333333333335,0.0011111111111111111,0.0,-14.0625,-4.5,-47.25,28,-0.0491943359375,0.00311279296875,0.0,0.998779296875,359.9375,-0.3125,5.625
1563146592.454216,359.9375,-0.3125,5.625,-0.06,-0.96,9.75,0.0,0.02,-0.16,-0.0011111111111111111,0.0011111111111111111,0.0011111111111111111,-14.875,-6.0,-47.25,28,-0.0491943359375,0.00311279296875,0.0,0.998779296875,359.9375,-0.3125,5.625
1563146592.496043,359.9375,-0.3125,5.625,-0.06,-0.96,9.75,-0.01,0.02,-0.17,0.0,0.0,-0.0011111111111111111,-14.875,-6.0,-47.25,28,-0.0491943359375,0.00311279296875,0.0,0.998779296875,359.9375,-0.3125,5.625
1563146592.536883,359.9375,-0.3125,5.625,-0.06,-0.96,9.75,0.0,0.03,-0.16,0.0011111111111111111,0.0033333333333333335,-0.0011111111111111111,-13.375,-5.5625,-45.375,28,-0.0491943359375,0.00311279296875,0.0,0.998779296875,359.9375,-0.3125,5.625
1563146592.576368,359.9375,-0.3125,5.625,-0.06,-0.96,9.75,-0.01,0.01,-0.17,0.0,0.0033333333333333335,0.0011111111111111111,-14.0625,-5.5625,-45.375,28,-0.0491943359375,0.00311279296875,0.0,0.998779296875,359.9375,-0.3125,5.625
1563146592.614872,359.9375,-0.3125,5.625,-0.06,-0.96,9.75,0.01,0.01,-0.17,0.0,0.0,-0.0011111111111111111,-14.875,-6.0,-46.875,28,-0.0491943359375,0.00311279296875,0.0,0.998779296875,359.9375,-0.3125,5.625
1563146592.654999,359.9375,-0.3125,5.625,-0.06,-0.96,9.75,0.0,0.02,-0.2,0.0,0.0,0.0,-13.75,-5.5625,-46.5625,28,-0.0491943359375,0.00311279296875,0.0,0.998779296875,359.9375,-0.3125,5.625
1563146592.698658,359.9375,-0.3125,5.625,-0.06,-0.96,9.75,0.0,0.01,-0.14,0.0,0.0,0.0,-13.75,-5.5625,-46.5625,28,-0.0491943359375,0.00311279296875,0.0,0.998779296875,359.9375,-0.3125,5.625
1563146592.739577,359.9375,-0.3125,5.625,-0.06,-0.96,9.75,-0.01,0.0,-0.17,0.0,0.0011111111111111111,0.0011111111111111111,-13.375,-6.0,-45.75,28,-0.0491943359375,0.00311279296875,0.0,0.998779296875,359.9375,-0.3125,5.625
1563146592.778946,359.9375,-0.3125,5.625,-0.06,-0.96,9.75,-0.01,0.01,-0.19,-0.0011111111111111111,0.0022222222222222222,-0.0011111111111111111,-14.5,-5.5625,-45.75,28,-0.0491943359375,0.00311279296875,0.0,0.998779296875,359.9375,-0.3125,5.625
1563146592.817439,359.9375,-0.3125,5.625,-0.06,-0.96,9.75,-0.01,0.02,-0.19,0.0011111111111111111,0.0022222222222222222,0.0011111111111111111,-15.25,-5.5625,-46.5625,28,-0.0491943359375,0.00311279296875,0.0,0.998779296875,359.9375,-0.3125,5.625
1563146592.855797,359.9375,-0.3125,5.625,-0.06,-0.96,9.75,-0.01,0.02,-0.16,0.0022222222222222222,0.0022222222222222222,0.0022222222222222222,-15.25,-6.0,-46.875,28,-0.0491943359375,0.00311279296875,0.0,0.998779296875,359.9375,-0.3125,5.625
1563146592.897643,359.9375,-0.3125,5.625,-0.06,-0.96,9.75,0.0,0.01,-0.17,0.0022222222222222222,0.0033333333333333335,0.0,-15.25,-6.0,-46.875,28,-0.0491943359375,0.00311279296875,0.0,0.998779296875,359.9375,-0.3125,5.625
1563146592.938594,359.9375,-0.3125,5.625,-0.06,-0.96,9.75,0.0,0.01,-0.16,0.0,-0.0033333333333333335,0.0,-13.75,-6.0,-46.0625,28,-0.0491943359375,0.00311279296875,0.0,0.998779296875,359.9375,-0.3125,5.625
1563146592.977987,359.9375,-0.3125,5.625,-0.06,-0.96,9.75,0.0,0.02,-0.19,0.0,0.0011111111111111111,0.0,-13.75,-5.5625,-45.75,28,-0.0491943359375,0.00311279296875,0.0,0.998779296875,359.9375,-0.3125,5.625
1563146593.016485,359.9375,-0.3125,5.625,-0.06,-0.96,9.75,0.01,0.01,-0.19,0.0011111111111111111,0.0022222222222222222,0.0011111111111111111,-14.5,-5.25,-46.0625,28,-0.0491943359375,0.00311279296875,0.0,0.998779296875,359.9375,-0.3125,5.625
1563146593.056617,359.9375,-0.3125,5.625,-0.06,-0.96,9.75,0.0,0.02,-0.14,0.0,0.0011111111111111111,-0.0011111111111111111,-15.5625,-6.0,-46.875,28,-0.0491943359375,0.00311279296875,0.0,0.998779296875,359.9375,-0.3125,5.625
1563146593.098294,359.9375,-0.3125,5.625,-0.06,-0.96,9.75,0.01,0.01,-0.17,0.0,0.0011111111111111111,-0.0022222222222222222,-15.5625,-6.0,-46.875,28,-0.0491943359375,0.00311279296875,0.0,0.998779296875,359.9375,-0.3125,5.625
1563146593.139271,359.9375,-0.3125,5.625,-0.06,-0.96,9.75,0.0,0.01,-0.17,0.0011111111111111111,0.0033333333333333335,0.0,-14.0625,-6.0,-45.75,28,-0.0491943359375,0.00311279296875,0.0,0.998779296875,359.9375,-0.3125,5.625
1563146593.178814,359.9375,-0.3125,5.625,-0.06,-0.96,9.75,0.0,0.02,-0.2,0.0,0.0,0.0,-14.875,-6.375,-46.0625,28,-0.0491943359375,0.00311279296875,0.0,0.998779296875,359.9375,-0.3125,5.625
1563146593.21739,359.9375,-0.3125,5.625,-0.06,-0.96,9.75,0.0,0.02,-0.18,0.0011111111111111111,0.0,0.0011111111111111111,-14.5,-6.0,-45.75,28,-0.0491943359375,0.00311279296875,0.0,0.998779296875,359.9375,-0.3125,5.625
1563146593.257495,359.9375,-0.3125,5.625,-0.06,-0.96,9.75,0.0,0.01,-0.16,0.0011111111111111111,-0.0011111111111111111,0.0011111111111111111,-14.5,-5.5625,-46.0625,28,-0.0491943359375,0.00311279296875,0.0,0.998779296875,359.9375,-0.3125,5.625
1563146593.299279,359.9375,-0.3125,5.625,-0.06,-0.96,9.75,0.0,0.01,-0.17,-0.0011111111111111111,-0.0011111111111111111,-0.0011111111111111111,-14.5,-5.5625,-46.0625,28,-0.0491943359375,0.00311279296875,0.0,0.998779296875,359.9375,-0.3125,5.625
1563146593.340248,359.9375,-0.3125,5.625,-0.06,-0.96,9.75,-0.01,0.04,-0.18,0.0011111111111111111,0.0,0.0,-14.875,-5.25,-44.875,28,-0.0491943359375,0.00311279296875,0.0,0.998779296875,359.9375,-0.3125,5.625
1563146593.379639,359.9375,-0.3125,5.625,-0.06,-0.96,9.75,0.01,0.01,-0.17,0.0,0.0,0.0011111111111111111,-13.375,-5.5625,-46.0625,28,-0.0491943359375,0.00311279296875,0.0,0.998779296875,359.9375,-0.3125,5.625
1563146593.418058,359.9375,-0.3125,5.625,-0.06,-0.96,9.75,-0.01,0.01,-0.18,0.0022222222222222222,0.0011111111111111111,0.0011111111111111111,-13.375,-5.25,-45.75,28,-0.0491943359375,0.00311279296875,0.0,0.998779296875,359.9375,-0.3125,5.625
1563146593.458188,359.9375,-0.3125,5.625,-0.06,-0.96,9.75,-0.01,0.01,-0.18,0.0022222222222222222,0.0011111111111111111,0.0011111111111111111,-13.75,-5.5625,-46.5625,28,-0.0491943359375,0.00311279296875,0.0,0.998779296875,359.9375,-0.3125,5.625
1563146593.500086,359.9375,-0.3125,5.625,-0.06,-0.96,9.75,0.0,0.01,-0.18,0.0011111111111111111,0.0,0.0011111111111111111,-13.75,-5.5625,-46.5625,28,-0.0491943359375,0.00311279296875,0.0,0.998779296875,359.9375,-0.3125,5.625
1563146593.540889,359.9375,-0.3125,5.625,-0.06,-0.96,9.75,-0.01,0.02,-0.15,0.0011111111111111111,-0.0011111111111111111,0.0011111111111111111,-14.5,-6.375,-45.375,28,-0.0491943359375,0.00311279296875,0.0,0.998779296875,359.9375,-0.3125,5.625
1563146593.580457,359.9375,-0.3125,5.625,-0.06,-0.96,9.75,0.0,0.01,-0.18,0.0,0.0011111111111111111,0.0022222222222222222,-14.5,-5.5625,-45.75,28,-0.0491943359375,0.00311279296875,0.0,0.998779296875,359.9375,-0.3125,5.625
1563146593.61877,359.9375,-0.3125,5.625,-0.06,-0.96,9.75,-0.01,0.01,-0.16,0.0011111111111111111,-0.0022222222222222222,0.0,-14.0625,-6.0,-45.375,28,-0.0491943359375,0.00311279296875,0.0,0.998779296875,359.9375,-0.3125,5.625
1563146593.65896,359.9375,-0.3125,5.625,-0.06,-0.96,9.75,-0.01,0.01,-0.15,-0.0011111111111111111,-0.0011111111111111111,-0.0022222222222222222,-14.0625,-6.0,-47.25,28,-0.0491943359375,0.00311279296875,0.0,0.998779296875,359.9375,-0.3125,5.625
1563146593.702638,359.9375,-0.3125,5.625,-0.06,-0.96,9.75,0.0,0.01,-0.17,-0.0011111111111111111,0.0022222222222222222,-0.0022222222222222222,-14.0625,-6.0,-47.25,28,-0.0491943359375,0.00311279296875,0.0,0.998779296875,359.9375,-0.3125,5.625
1563146593.743594,359.9375,-0.3125,5.625,-0.06,-0.96,9.75,0.0,0.01,-0.17,0.0011111111111111111,0.0011111111111111111,0.0,-14.5,-4.875,-46.5625,28,-0.0491943359375,0.00311279296875,0.0,0.998779296875,359.9375,-0.3125,5.625
1563146593.782972,359.9375,-0.3125,5.625,-0.06,-0.96,9.75,0.0,0.0,-0.18,-0.0011111111111111111,0.0,0.0022222222222222222,-14.0625,-6.0,-44.5625,28,-0.0491943359375,0.00311279296875,0.0,0.998779296875,359.9375,-0.3125,5.625
1563146593.821493,359.9375,-0.3125,5.625,-0.06,-0.96,9.75,0.0,0.0,-0.2,0.0022222222222222222,-0.0033333333333333335,0.0022222222222222222,-14.0625,-5.5625,-45.75,28,-0.0491943359375,0.00311279296875,0.0,0.998779296875,359.9375,-0.3125,5.625
1563146593.859699,359.9375,-0.3125,5.625,-0.06,-0.96,9.75,0.0,0.02,-0.18,-0.0011111111111111111,0.0,0.0011111111111111111,-13.375,-5.5625,-46.5625,28,-0.0491943359375,0.00311279296875,0.0,0.998779296875,359.9375,-0.3125,5.625
1563146593.90174,359.9375,-0.3125,5.625,-0.06,-0.96,9.75,-0.01,0.01,-0.15,0.0,-0.005555555555555556,0.0,-13.375,-5.5625,-46.5625,28,-0.0491943359375,0.00311279296875,0.0,0.998779296875,359.9375,-0.3125,5.625
1563146593.942819,359.9375,-0.3125,5.625,-0.06,-0.96,9.75,0.01,0.02,-0.17,0.0011111111111111111,0.0033333333333333335,0.0022222222222222222,-14.5,-5.5625,-45.375,28,-0.0491943359375,0.00311279296875,0.0,0.998779296875,359.9375,-0.3125,5.625
1563146593.982069,359.9375,-0.3125,5.625,-0.06,-0.96,9.75,-0.01,0.01,-0.17,0.0011111111111111111,-0.0011111111111111111,0.0,-14.875,-5.5625,-45.375,28,-0.0491943359375,0.00311279296875,0.0,0.998779296875,359.9375,-0.3125,5.625
1563146594.020437,359.9375,-0.3125,5.625,-0.06,-0.96,9.75,-0.01,0.01,-0.19,0.0011111111111111111,0.0,0.0022222222222222222,-14.0625,-5.5625,-46.0625,28,-0.0491943359375,0.00311279296875,0.0,0.998779296875,359.9375,-0.3125,5.625
1563146594.060672,359.9375,-0.3125,5.625,-0.06,-0.96,9.75,0.0,0.01,-0.16,0.0011111111111111111,-0.0022222222222222222,-0.0022222222222222222,-14.0625,-5.5625,-46.875,28,-0.0491943359375,0.00311279296875,0.0,0.998779296875,359.9375,-0.3125,5.625
1563146594.102587,359.9375,-0.3125,5.625,-0.06,-0.96,9.75,0.0,0.01,-0.17,0.0011111111111111111,-0.0022222222222222222,0.0,-14.0625,-5.5625,-46.875,28,-0.0491943359375,0.00311279296875,0.0,0.998779296875,359.9375,-0.3125,5.625
1563146594.143452,359.9375,-0.3125,5.625,-0.06,-0.96,9.75,0.01,0.01,-0.16,0.0,-0.0011111111111111111,-0.0011111111111111111,-15.25,-5.5625,-45.75,28,-0.0491943359375,0.00311279296875,0.0,0.998779296875,359.9375,-0.3125,5.625
1563146594.182849,359.9375,-0.3125,5.625,-0.06,-0.96,9.75,0.0,0.02,-0.21,0.0,-0.0011111111111111111,0.0,-14.875,-5.25,-45.75,28,-0.0491943359375,0.00311279296875,0.0,0.998779296875,359.9375,-0.3125,5.625
1563146594.221322,359.9375,-0.3125,5.625,-0.06,-0.96,9.75,0.0,0.0,-0.15,0.0,-0.0022222222222222222,0.0022222222222222222,-14.875,-6.75,-45.75,28,-0.0491943359375,0.00311279296875,0.0,0.998779296875,359.9375,-0.3125,5.625
1563146594.26148,359.9375,-0.3125,5.625,-0.06,-0.96,9.75,0.01,0.0,-0.15,-0.0022222222222222222,0.0033333333333333335,0.0,-15.25,-6.0,-46.5625,28,-0.0491943359375,0.00311279296875,0.0,0.998779296875,359.9375,-0.3125,5.625
1563146594.303408,359.9375,-0.3125,5.625,-0.06,-0.96,9.75,-0.01,0.02,-0.19,0.0,0.0,0.0,-15.25,-6.0,-46.5625,28,-0.0491943359375,0.00311279296875,0.0,0.998779296875,359.9375,-0.3125,5.625
1563146594.344303,359.9375,-0.3125,5.625,-0.06,-0.96,9.75,0.0,0.0,-0.15,0.0,0.0022222222222222222,0.0011111111111111111,-14.5,-5.5625,-45.375,28,-0.0491943359375,0.00311279296875,0.0,0.998779296875,359.9375,-0.3125,5.625
1563146594.383774,359.9375,-0.3125,5.625,-0.06,-0.96,9.75,0.0,0.0,-0.18,-0.0011111111111111111,0.0022222222222222222,0.0,-14.875,-5.25,-45.75,28,-0.0491943359375,0.00311279296875,0.0,0.998779296875,359.9375,-0.3125,5.625
1563146594.422211,359.9375,-0.3125,5.625,-0.06,-0.96,9.75,0.0,0.01,-0.16,-0.0011111111111111111,0.0,0.0011111111111111111,-13.75,-4.875,-46.0625,28,-0.0491943359375,0.00311279296875,0.0,0.998779296875,359.9375,-0.3125,5.625
1563146594.462255,359.9375,-0.3125,5.625,-0.06,-0.96,9.75,0.0,0.01,-0.17,-0.0011111111111111111,0.0,0.0011111111111111111,-14.5,-5.25,-46.875,28,-0.0491943359375,0.00311279296875,0.0,0.998779296875,359.9375,-0.3125,5.625
1563146594.504205,359.9375,-0.3125,5.625,-0.06,-0.96,9.75,-0.02,0.01,-0.18,0.0022222222222222222,-0.0011111111111111111,0.0011111111111111111,-14.5,-5.25,-46.875,28,-0.0491943359375,0.00311279296875,0.0,0.998779296875,359.9375,-0.3125,5.625
1563146594.545229,359.9375,-0.3125,5.625,-0.06,-0.96,9.75,0.0,0.01,-0.19,0.0011111111111111111,-0.0011111111111111111,0.0011111111111111111,-14.875,-5.5625,-45.75,28,-0.0491943359375,0.00311279296875,0.0,0.998779296875,359.9375,-0.3125,5.625
1563146594.584603,359.9375,-0.3125,5.625,-0.06,-0.96,9.75,0.0,0.01,-0.18,0.0,0.0011111111111111111,0.0011111111111111111,-13.75,-6.0,-45.75,28,-0.0491943359375,0.00311279296875,0.0,0.998779296875,359.9375,-0.3125,5.625
1563146594.622967,359.9375,-0.3125,5.625,-0.06,-0.96,9.75,0.0,0.01,-0.15,0.0011111111111111111,-0.0022222222222222222,0.0011111111111111111,-14.5,-5.5625,-46.875,28,-0.0491943359375,0.00311279296875,0.0,0.998779296875,359.9375,-0.3125,5.625
1563146594.663125,359.9375,-0.3125,5.625,-0.06,-0.96,9.75,0.01,0.01,-0.15,0.0011111111111111111,0.0011111111111111111,-0.0022222222222222222,-14.5,-4.875,-45.75,28,-0.0491943359375,0.00311279296875,0.0,0.998779296875,359.9375,-0.3125,5.625
1563146594.706784,359.9375,-0.3125,5.625,-0.06,-0.96,9.75,-0.01,0.01,-0.19,0.0022222222222222222,-0.0022222222222222222,0.0011111111111111111,-14.5,-4.875,-45.75,28,-0.0491943359375,0.00311279296875,0.0,0.998779296875,359.9375,-0.3125,5.625
1563146594.747764,359.9375,-0.3125,5.625,-0.06,-0.96,9.75,0.0,0.01,-0.19,0.0,-0.0011111111111111111,0.0011111111111111111,-14.0625,-5.5625,-45.0,28,-0.0491943359375,0.00311279296875,0.0,0.998779296875,359.9375,-0.3125,5.625
1563146594.787094,359.9375,-0.3125,5.625,-0.06,-0.96,9.75,0.0,0.02,-0.17,-0.0011111111111111111,0.0011111111111111111,-0.0022222222222222222,-14.875,-5.25,-45.75,28,-0.0491943359375,0.00311279296875,0.0,0.998779296875,359.9375,-0.3125,5.625
1563146594.825387,359.9375,-0.3125,5.625,-0.06,-0.96,9.75,-0.01,0.01,-0.22,0.0,-0.0011111111111111111,0.0,-13.75,-5.5625,-45.375,28,-0.0491943359375,0.00311279296875,0.0,0.998779296875,359.9375,-0.3125,5.625
1563146594.863928,359.9375,-0.3125,5.625,-0.06,-0.96,9.75,0.0,0.01,-0.19,0.0,0.0011111111111111111,-0.0022222222222222222,-14.875,-4.875,-46.875,28,-0.0491943359375,0.00311279296875,0.0,0.998779296875,359.9375,-0.3125,5.625
1563146594.90584,359.9375,-0.3125,5.625,-0.06,-0.96,9.75,0.0,0.01,-0.17,0.0,0.0011111111111111111,-0.0011111111111111111,-14.875,-4.875,-46.875,28,-0.0491943359375,0.00311279296875,0.0,0.998779296875,359.9375,-0.3125,5.625
1563146594.946779,359.9375,-0.3125,5.625,-0.06,-0.96,9.75,0.0,0.0,-0.16,0.0,0.0033333333333333335,0.0,-14.875,-6.0,-45.375,28,-0.0491943359375,0.00311279296875,0.0,0.998779296875,359.9375,-0.3125,5.625
1563146594.986105,359.9375,-0.3125,5.625,-0.06,-0.96,9.75,0.02,0.02,-0.17,0.0011111111111111111,0.0011111111111111111,0.0011111111111111111,-14.0625,-4.875,-45.75,28,-0.0491943359375,0.00311279296875,0.0,0.998779296875,359.9375,-0.3125,5.625
1563146595.024591,359.9375,-0.3125,5.625,-0.06,-0.96,9.75,0.0,0.02,-0.16,0.0,0.0,-0.0022222222222222222,-14.5,-5.25,-47.25,28,-0.0491943359375,0.00311279296875,0.0,0.998779296875,359.9375,-0.3125,5.625
1563146595.064727,359.9375,-0.3125,5.625,-0.06,-0.96,9.75,0.0,0.01,-0.19,-0.0011111111111111111,0.0022222222222222222,0.0,-13.375,-6.0,-47.25,28,-0.0491943359375,0.00311279296875,0.0,0.998779296875,359.9375,-0.3125,5.625
1563146595.106699,359.9375,-0.3125,5.625,-0.06,-0.96,9.75,0.0,0.01,-0.18,0.0011111111111111111,0.0,-0.0011111111111111111,-13.375,-6.0,-47.25,28,-0.0491943359375,0.00311279296875,0.0,0.998779296875,359.9375,-0.3125,5.625
1563146595.14754,359.9375,-0.3125,5.625,-0.06,-0.96,9.75,0.0,0.01,-0.16,0.0,0.0022222222222222222,-0.0011111111111111111,-14.0625,-5.25,-45.0,28,-0.0491943359375,0.00311279296875,0.0,0.998779296875,359.9375,-0.3125,5.625
1563146595.186893,359.9375,-0.3125,5.625,-0.06,-0.96,9.75,0.01,0.03,-0.18,0.0,0.0,0.0011111111111111111,-14.5,-5.25,-46.875,28,-0.0491943359375,0.00311279296875,0.0,0.998779296875,359.9375,-0.3125,5.625
1563146595.225414,359.9375,-0.3125,5.625,-0.06,-0.96,9.75,0.0,0.01,-0.19,0.0,0.0,0.0,-15.25,-6.375,-46.875,28,-0.0491943359375,0.00311279296875,0.0,0.998779296875,359.9375,-0.3125,5.625
1563146595.26559,359.9375,-0.3125,5.625,-0.06,-0.96,9.75,0.0,0.03,-0.17,-0.0011111111111111111,-0.0011111111111111111,-0.0011111111111111111,-15.25,-6.0,-45.75,28,-0.0491943359375,0.00311279296875,0.0,0.998779296875,359.9375,-0.3125,5.625
1563146595.307475,359.9375,-0.3125,5.625,-0.06,-0.96,9.75,0.0,0.03,-0.14,0.0011111111111111111,-0.0022222222222222222,0.0044444444444444444,-15.25,-6.0,-45.75,28,-0.0491943359375,0.00311279296875,0.0,0.998779296875,359.9375,-0.3125,5.625
1563146595.348312,359.9375,-0.3125,5.625,-0.06,-0.96,9.75,0.0,0.0,-0.14,0.0,0.0022222222222222222,-0.0022222222222222222,-14.5,-6.375,-45.375,28,-0.0491943359375,0.00311279296875,0.0,0.998779296875,359.9375,-0.3125,5.625
1563146595.387719,359.9375,-0.3125,5.625,-0.06,-0.96,9.75,0.0,0.02,-0.16,0.0,-0.0011111111111111111,-0.0011111111111111111,-14.5,-5.25,-46.0625,28,-0.0491943359375,0.00311279296875,0.0,0.998779296875,359.9375,-0.3125,5.625
1563146595.42621,359.9375,-0.3125,5.625,-0.06,-0.96,9.75,0.0,0.01,-0.19,0.0,-0.0011111111111111111,0.0022222222222222222,-14.0625,-6.75,-45.75,28,-0.0491943359375,0.00311279296875,0.0,0.998779296875,359.9375,-0.3125,5.625
1563146595.466376,359.9375,-0.3125,5.625,-0.06,-0.96,9.75,0.01,0.01,-0.13,0.0,0.0022222222222222222,-0.0011111111111111111,-14.0625,-6.375,-46.5625,28,-0.0491943359375,0.00311279296875,0.0,0.998779296875,359.9375,-0.3125,5.625
1563146595.508258,359.9375,-0.3125,5.625,-0.06,-0.96,9.75,0.0,0.0,-0.17,0.0011111111111111111,0.0011111111111111111,-0.0011111111111111111,-14.0625,-6.375,-46.5625,28,-0.0491943359375,0.00311279296875,0.0,0.998779296875,359.9375,-0.3125,5.625
1563146595.549201,359.9375,-0.3125,5.625,-0.06,-0.96,9.75,0.0,0.01,-0.19,-0.0011111111111111111,-0.0011111111111111111,-0.0011111111111111111,-15.25,-6.0,-46.0625,28,-0.0491943359375,0.00311279296875,0.0,0.998779296875,359.9375,-0.3125,5.625
1563146595.588517,359.9375,-0.3125,5.625,-0.06,-0.96,9.75,0.0,0.0,-0.18,0.0,-0.0044444444444444444,0.0011111111111111111,-14.0625,-5.5625,-46.0625,28,-0.0491943359375,0.00311279296875,0.0,0.998779296875,359.9375,-0.3125,5.625
1563146595.627032,359.9375,-0.3125,5.625,-0.06,-0.96,9.75,0.0,0.02,-0.16,0.0011111111111111111,0.0,0.0,-15.25,-5.5625,-46.875,28,-0.0491943359375,0.00311279296875,0.0,0.998779296875,359.9375,-0.3125,5.625
1563146595.667219,359.9375,-0.3125,5.625,-0.06,-0.96,9.75,0.0,0.0,-0.2,0.0,0.0,0.0033333333333333335,-14.0625,-5.5625,-46.5625,28,-0.0491943359375,0.00311279296875,0.0,0.998779296875,359.9375,-0.3125,5.625
1563146595.71066,359.9375,-0.3125,5.625,-0.06,-0.96,9.75,0.0,0.03,-0.16,0.0,0.0,-0.0011111111111111111,-14.0625,-5.5625,-46.5625,28,-0.0491943359375,0.00311279296875,0.0,0.998779296875,359.9375,-0.3125,5.625
1563146595.7517,359.9375,-0.3125,5.625,-0.06,-0.96,9.75,-0.01,0.0,-0.19,0.0011111111111111111,-0.0011111111111111111,0.0,-14.875,-4.5,-45.375,28,-0.0491943359375,0.00311279296875,0.0,0.998779296875,359.9375,-0.3125,5.625
1563146595.791187,359.9375,-0.3125,5.625,-0.06,-0.96,9.75,0.0,0.01,-0.19,0.0,0.0022222222222222222,-0.0011111111111111111,-14.875,-5.5625,-46.5625,28,-0.0491943359375,0.00311279296875,0.0,0.998779296875,359.9375,-0.3125,5.625
1563146595.829604,359.9375,-0.3125,5.625,-0.06,-0.96,9.75,0.0,0.01,-0.19,-0.0011111111111111111,-0.0022222222222222222,-0.0011111111111111111,-13.75,-5.25,-45.75,28,-0.0491943359375,0.00311279296875,0.0,0.998779296875,359.9375,-0.3125,5.625
1563146595.867983,359.9375,-0.3125,5.625,-0.06,-0.96,9.75,-0.01,0.01,-0.2,0.0,0.0,0.0,-13.75,-6.0,-46.5625,28,-0.0491943359375,0.00311279296875,0.0,0.998779296875,359.9375,-0.3125,5.625
1563146595.909813,359.9375,-0.3125,5.625,-0.06,-0.96,9.75,-0.01,0.02,-0.16,-0.0011111111111111111,-0.0022222222222222222,0.0022222222222222222,-13.75,-6.0,-46.5625,28,-0.0491943359375,0.00311279296875,0.0,0.998779296875,359.9375,-0.3125,5.625
1563146595.950669,359.9375,-0.3125,5.625,-0.06,-0.96,9.75,0.0,0.02,-0.18,0.0,0.0011111111111111111,0.0,-14.0625,-6.0,-46.5625,28,-0.0491943359375,0.00311279296875,0.0,0.998779296875,359.9375,-0.3125,5.625
1563146595.990139,359.9375,-0.3125,5.625,-0.06,-0.96,9.75,0.0,0.01,-0.19,0.0011111111111111111,0.0022222222222222222,0.0022222222222222222,-14.5,-6.0,-45.375,28,-0.0491943359375,0.00311279296875,0.0,0.998779296875,359.9375,-0.3125,5.625
1563146596.028628,359.9375,-0.3125,5.625,-0.06,-0.96,9.75,0.0,0.0,-0.19,-0.0011111111111111111,0.0,0.0011111111111111111,-14.5,-5.25,-46.5625,28,-0.0491943359375,0.00311279296875,0.0,0.998779296875,359.9375,-0.3125,5.625
1563146596.070578,359.9375,-0.3125,5.625,-0.06,-0.96,9.75,-0.01,0.01,-0.18,0.0,0.0,0.0011111111111111111,-14.5,-6.0,-46.5625,28,-0.0491943359375,0.00311279296875,0.0,0.998779296875,359.9375,-0.3125,5.625
1563146596.110673,359.9375,-0.3125,5.625,-0.06,-0.96,9.75,0.0,0.04,-0.13,0.0022222222222222222,-0.0033333333333333335,-0.0011111111111111111,-14.5,-6.0,-46.5625,28,-0.0491943359375,0.00311279296875,0.0,0.998779296875,359.9375,-0.3125,5.625
1563146596.151508,359.9375,-0.3125,5.625,-0.06,-0.96,9.75,0.0,0.01,-0.18,0.0022222222222222222,0.0011111111111111111,0.0,-14.0625,-5.25,-46.0625,28,-0.0491943359375,0.00311279296875,0.0,0.998779296875,359.9375,-0.3125,5.625
1563146596.191033,359.9375,-0.3125,5.625,-0.06,-0.96,9.75,0.0,0.01,-0.18,0.0022222222222222222,0.0,-0.0011111111111111111,-14.5,-5.25,-46.1875,28,-0.0491943359375,0.00311279296875,0.0,0.998779296875,359.9375,-0.3125,5.625
1563146596.229408,359.9375,-0.3125,5.625,-0.06,-0.96,9.75,-0.01,0.01,-0.18,0.0011111111111111111,0.0011111111111111111,-0.0022222222222222222,-14.5,-6.0,-46.5625,28,-0.0491943359375,0.00311279296875,0.0,0.998779296875,359.9375,-0.3125,5.625
1563146596.269582,359.9375,-0.3125,5.625,-0.06,-0.96,9.75,-0.01,0.0,-0.16,-0.0022222222222222222,0.0011111111111111111,0.0011111111111111111,-14.0625,-6.0,-46.0625,28,-0.0491943359375,0.00311279296875,0.0,0.998779296875,359.9375,-0.3125,5.625
1563146596.311602,359.9375,-0.3125,5.625,-0.06,-0.96,9.75,-0.01,0.01,-0.19,-0.0011111111111111111,0.0044444444444444444,0.0011111111111111111,-14.0625,-6.0,-46.0625,28,-0.0491943359375,0.00311279296875,0.0,0.998779296875,359.9375,-0.3125,5.625
1563146596.35244,359.9375,-0.3125,5.625,-0.06,-0.96,9.75,0.0,0.0,-0.19,0.0,-0.0011111111111111111,0.0,-14.875,-6.375,-46.0625,28,-0.0491943359375,0.00311279296875,0.0,0.998779296875,359.9375,-0.3125,5.625
1563146596.391775,359.9375,-0.3125,5.625,-0.06,-0.96,9.75,0.0,0.02,-0.2,0.0,0.0011111111111111111,0.0011111111111111111,-15.25,-6.0,-45.75,28,-0.0491943359375,0.00311279296875,0.0,0.998779296875,359.9375,-0.3125,5.625
1563146596.430214,359.9375,-0.3125,5.625,-0.06,-0.96,9.75,-0.01,0.0,-0.13,0.0011111111111111111,-0.0033333333333333335,0.0011111111111111111,-14.5,-5.25,-45.375,28,-0.0491943359375,0.00311279296875,0.0,0.998779296875,359.9375,-0.3125,5.625
1563146596.470409,359.9375,-0.3125,5.625,-0.06,-0.96,9.75,0.0,0.02,-0.16,-0.0011111111111111111,0.0,0.0022222222222222222,-14.0625,-5.5625,-46.875,28,-0.0491943359375,0.00311279296875,0.0,0.998779296875,359.9375,-0.3125,5.625
1563146596.512297,359.9375,-0.3125,5.625,-0.06,-0.96,9.75,-0.01,0.01,-0.16,0.0,-0.0011111111111111111,0.0011111111111111111,-14.0625,-5.5625,-46.875,28,-0.0491943359375,0.00311279296875,0.0,0.998779296875,359.9375,-0.3125,5.625
1563146596.553171,359.9375,-0.3125,5.625,-0.06,-0.96,9.75,0.0,0.02,-0.17,0.0,-0.0033333333333333335,0.0011111111111111111,-13.375,-5.5625,-45.75,28,-0.0491943359375,0.00311279296875,0.0,0.998779296875,359.9375,-0.3125,5.625
1563146596.592649,359.9375,-0.3125,5.625,-0.06,-0.96,9.75,0.0,0.01,-0.16,-0.0033333333333333335,0.0022222222222222222,0.0022222222222222222,-14.0625,-6.0,-46.5625,28,-0.0491943359375,0.00311279296875,0.0,0.998779296875,359.9375,-0.3125,5.625
1563146596.630865,359.9375,-0.3125,5.625,-0.06,-0.96,9.75,0.01,0.0,-0.17,-0.0011111111111111111,-0.0011111111111111111,-0.0011111111111111111,-15.5625,-5.5625,-46.5625,28,-0.0491943359375,0.00311279296875,0.0,0.998779296875,359.9375,-0.3125,5.625
1563146596.671258,359.9375,-0.3125,5.625,-0.06,-0.96,9.75,-0.01,0.01,-0.15,0.0,-0.0022222222222222222,-0.0011111111111111111,-14.875,-6.375,-45.75,28,-0.0491943359375,0.00311279296875,0.0,0.998779296875,359.9375,-0.3125,5.625
1563146596.715014,359.9375,-0.3125,5.625,-0.06,-0.96,9.75,0.01,0.01,-0.17,-0.0011111111111111111,-0.0022222222222222222,0.0,-14.875,-6.375,-45.75,28,-0.0491943359375,0.00311279296875,0.0,0.998779296875,359.9375,-0.3125,5.625
1563146596.761404,359.9375,-0.3125,5.625,-0.06,-0.96,9.75,0.0,0.02,-0.18,0.0011111111111111111,-0.0011111111111111111,-0.0011111111111111111,-13.375,-5.5625,-45.375,28,-0.0491943359375,0.00311279296875,0.0,0.998779296875,359.9375,-0.3125,5.625
1563146596.797437,359.9375,-0.3125,5.625,-0.06,-0.96,9.75,0.0,0.02,-0.2,0.0044444444444444444,0.0,0.0,-14.0625,-4.875,-46.0625,28,-0.0491943359375,0.00311279296875,0.0,0.998779296875,359.9375,-0.3125,5.625
1563146596.835348,359.9375,-0.3125,5.625,-0.06,-0.96,9.75,0.0,0.01,-0.21,-0.0011111111111111111,-0.0011111111111111111,0.0011111111111111111,-14.5,-5.5625,-45.375,28,-0.0491943359375,0.00311279296875,0.0,0.998779296875,359.9375,-0.3125,5.625
1563146596.873755,359.9375,-0.3125,5.625,-0.06,-0.96,9.75,0.0,0.02,-0.16,0.0011111111111111111,0.0011111111111111111,-0.0011111111111111111,-13.75,-6.0,-46.0625,28,-0.0491943359375,0.00311279296875,0.0,0.998779296875,359.9375,-0.3125,5.625
1563146596.913843,359.9375,-0.3125,5.625,-0.06,-0.96,9.75,0.0,0.01,-0.15,0.0,0.0,0.0,-13.75,-6.0,-46.0625,28,-0.0491943359375,0.00311279296875,0.0,0.998779296875,359.9375,-0.3125,5.625
1563146596.954849,359.9375,-0.3125,5.625,-0.06,-0.96,9.75,0.0,0.0,-0.16,0.0022222222222222222,0.0033333333333333335,-0.0011111111111111111,-14.0625,-6.0,-46.5625,28,-0.0491943359375,0.00311279296875,0.0,0.998779296875,359.9375,-0.3125,5.625
1563146596.994193,359.9375,-0.3125,5.625,-0.06,-0.96,9.75,-0.01,0.02,-0.17,-0.0011111111111111111,0.0011111111111111111,0.0022222222222222222,-14.0625,-6.375,-47.25,28,-0.0491943359375,0.00311279296875,0.0,0.998779296875,359.9375,-0.3125,5.625
1563146597.032679,359.9375,-0.3125,5.625,-0.06,-0.96,9.75,0.0,0.01,-0.15,0.0011111111111111111,-0.0011111111111111111,0.0011111111111111111,-14.5,-6.375,-46.5625,28,-0.0491943359375,0.00311279296875,0.0,0.998779296875,359.9375,-0.3125,5.625
1563146597.072827,359.9375,-0.3125,5.625,-0.06,-0.96,9.75,-0.01,0.0,-0.16,0.0011111111111111111,-0.0022222222222222222,0.0011111111111111111,-14.875,-5.25,-46.0625,28,-0.0491943359375,0.00311279296875,0.0,0.998779296875,359.9375,-0.3125,5.625
1563146597.114686,359.9375,-0.3125,5.625,-0.06,-0.96,9.75,-0.01,0.0,-0.19,0.0011111111111111111,-0.0033333333333333335,0.0022222222222222222,-14.875,-5.25,-46.0625,28,-0.0491943359375,0.00311279296875,0.0,0.998779296875,359.9375,-0.3125,5.625
1563146597.155435,359.9375,-0.3125,5.625,-0.06,-0.96,9.75,0.0,0.04,-0.17,0.0011111111111111111,0.0022222222222222222,0.0011111111111111111,-13.75,-4.875,-46.0625,28,-0.0491943359375,0.00311279296875,0.0,0.998779296875,359.9375,-0.3125,5.625
1563146597.19511,359.9375,-0.3125,5.625,-0.06,-0.96,9.75,0.02,0.0,-0.14,0.0,0.0,-0.0011111111111111111,-13.75,-5.5625,-46.1875,28,-0.0491943359375,0.00311279296875,0.0,0.998779296875,359.9375,-0.3125,5.625
1563146597.233448,359.9375,-0.3125,5.625,-0.06,-0.96,9.75,-0.01,0.01,-0.18,0.0022222222222222222,0.0044444444444444444,-0.0011111111111111111,-14.875,-4.875,-46.0625,28,-0.0491943359375,0.00311279296875,0.0,0.998779296875,359.9375,-0.3125,5.625
1563146597.273606,359.9375,-0.3125,5.625,-0.06,-0.96,9.75,0.01,0.01,-0.14,0.0011111111111111111,0.0,-0.0022222222222222222,-15.25,-5.25,-46.5625,28,-0.0491943359375,0.00311279296875,0.0,0.998779296875,359.9375,-0.3125,5.625
1563146597.315509,359.9375,-0.3125,5.625,-0.06,-0.96,9.75,0.0,0.01,-0.15,0.0022222222222222222,-0.0033333333333333335,-0.0011111111111111111,-15.25,-5.25,-46.5625,28,-0.0491943359375,0.00311279296875,0.0,0.998779296875,359.9375,-0.3125,5.625
1563146597.356333,359.9375,-0.3125,5.625,-0.06,-0.96,9.75,0.0,0.01,-0.15,0.0,-0.0022222222222222222,0.0011111111111111111,-14.5,-5.5625,-45.375,28,-0.0491943359375,0.00311279296875,0.0,0.998779296875,359.9375,-0.3125,5.625
1563146597.39576,359.9375,-0.3125,5.625,-0.06,-0.96,9.75,0.0,0.03,-0.16,0.0011111111111111111,-0.0011111111111111111,-0.0022222222222222222,-14.875,-5.5625,-46.5625,28,-0.0491943359375,0.00311279296875,0.0,0.998779296875,359.9375,-0.3125,5.625
1563146597.434243,359.9375,-0.3125,5.625,-0.06,-0.96,9.75,0.0,0.01,-0.17,0.0011111111111111111,0.0011111111111111111,0.0011111111111111111,-15.25,-5.5625,-46.5625,28,-0.0491943359375,0.00311279296875,0.0,0.998779296875,359.9375,-0.3125,5.625
1563146597.474429,359.9375,-0.3125,5.625,-0.06,-0.96,9.75,0.0,0.01,-0.16,0.0011111111111111111,-0.0011111111111111111,0.0,-13.75,-5.25,-47.25,28,-0.0491943359375,0.00311279296875,0.0,0.998779296875,359.9375,-0.3125,5.625
1563146597.516306,359.9375,-0.3125,5.625,-0.06,-0.96,9.75,0.0,0.01,-0.18,0.0,-0.0022222222222222222,0.0,-13.75,-5.25,-47.25,28,-0.0491943359375,0.00311279296875,0.0,0.998779296875,359.9375,-0.3125,5.625
1563146597.557106,359.9375,-0.3125,5.625,-0.06,-0.96,9.75,0.01,0.03,-0.16,0.0011111111111111111,0.0011111111111111111,0.0,-14.875,-5.5625,-46.0625,28,-0.0491943359375,0.00311279296875,0.0,0.998779296875,359.9375,-0.3125,5.625
1563146597.596571,359.9375,-0.3125,5.625,-0.06,-0.96,9.75,0.0,0.01,-0.15,0.0,0.0,0.0,-13.375,-5.5625,-46.0625,28,-0.0491943359375,0.00311279296875,0.0,0.998779296875,359.9375,-0.3125,5.625
1563146597.635053,359.9375,-0.3125,5.625,-0.06,-0.96,9.75,-0.01,0.0,-0.16,0.0,0.0011111111111111111,-0.0011111111111111111,-13.375,-6.0,-46.5625,28,-0.0491943359375,0.00311279296875,0.0,0.998779296875,359.9375,-0.3125,5.625
1563146597.675209,359.9375,-0.3125,5.625,-0.06,-0.96,9.75,0.0,0.01,-0.17,0.0,-0.0011111111111111111,0.0011111111111111111,-13.375,-5.25,-46.0625,28,-0.0491943359375,0.00311279296875,0.0,0.998779296875,359.9375,-0.3125,5.625
1563146597.718792,359.9375,-0.3125,5.625,-0.06,-0.96,9.75,-0.01,0.01,-0.16,0.0011111111111111111,-0.0022222222222222222,-0.0011111111111111111,-13.375,-5.25,-46.0625,28,-0.0491943359375,0.00311279296875,0.0,0.998779296875,359.9375,-0.3125,5.625
1563146597.759779,359.9375,-0.3125,5.625,-0.06,-0.96,9.75,-0.01,0.0,-0.15,0.0011111111111111111,-0.0033333333333333335,-0.0044444444444444444,-13.75,-6.375,-45.375,28,-0.0491943359375,0.00311279296875,0.0,0.998779296875,359.9375,-0.3125,5.625
1563146597.799127,359.9375,-0.3125,5.625,-0.06,-0.96,9.75,0.0,0.0,-0.18,0.0,0.0011111111111111111,0.0,-14.0625,-6.0,-45.75,28,-0.0491943359375,0.00311279296875,0.0,0.998779296875,359.9375,-0.3125,5.625
1563146597.837532,359.9375,-0.3125,5.625,-0.06,-0.96,9.75,0.0,0.02,-0.19,-0.0011111111111111111,0.0022222222222222222,-0.0011111111111111111,-14.875,-6.75,-46.0625,28,-0.0491943359375,0.00311279296875,0.0,0.998779296875,359.9375,-0.3125,5.625
1563146597.876025,359.9375,-0.3125,5.625,-0.06,-0.96,9.75,0.01,0.03,-0.19,0.0022222222222222222,0.0011111111111111111,0.0011111111111111111,-13.75,-5.5625,-46.5625,28,-0.0491943359375,0.00311279296875,0.0,0.998779296875,359.9375,-0.3125,5.625
1563146597.917892,359.9375,-0.3125,5.625,-0.06,-0.96,9.75,0.01,0.02,-0.16,0.0,-0.0022222222222222222,-0.0022222222222222222,-13.75,-5.5625,-46.5625,28,-0.0491943359375,0.00311279296875,0.0,0.998779296875,359.9375,-0.3125,5.625
1563146597.958833,359.9375,-0.3125,5.625,-0.06,-0.96,9.75,0.0,0.0,-0.19,0.0,0.0011111111111111111,-0.0011111111111111111,-14.0625,-5.5625,-46.1875,28,-0.0491943359375,0.00311279296875,0.0,0.998779296875,359.9375,-0.3125,5.625
1563146597.998257,359.9375,-0.3125,5.625,-0.06,-0.96,9.75,-0.01,0.0,-0.18,0.0,-0.0022222222222222222,-0.0022222222222222222,-14.5,-7.0625,-46.5625,28,-0.0491943359375,0.00311279296875,0.0,0.998779296875,359.9375,-0.3125,5.625
1563146598.036542,359.9375,-0.3125,5.625,-0.06,-0.96,9.75,0.0,0.0,-0.17,0.0,0.0011111111111111111,-0.0011111111111111111,-13.375,-5.25,-45.75,28,-0.0491943359375,0.00311279296875,0.0,0.998779296875,359.9375,-0.3125,5.625
1563146598.076799,359.9375,-0.3125,5.625,-0.06,-0.96,9.75,-0.01,0.01,-0.14,0.0011111111111111111,0.0022222222222222222,0.0,-13.75,-5.5625,-45.375,28,-0.0491943359375,0.00311279296875,0.0,0.998779296875,359.9375,-0.3125,5.625
1563146598.118619,359.9375,-0.3125,5.625,-0.06,-0.96,9.75,0.0,0.0,-0.16,0.0,-0.0011111111111111111,0.0,-13.75,-5.5625,-45.375,28,-0.0491943359375,0.00311279296875,0.0,0.998779296875,359.9375,-0.3125,5.625
1563146598.159641,359.9375,-0.3125,5.625,-0.06,-0.96,9.75,0.01,0.02,-0.2,0.0,0.0011111111111111111,-0.0011111111111111111,-14.875,-6.0,-46.5625,28,-0.0491943359375,0.00311279296875,0.0,0.998779296875,359.9375,-0.3125,5.625
1563146598.199126,359.9375,-0.3125,5.625,-0.06,-0.96,9.75,-0.01,0.0,-0.19,0.0,0.0011111111111111111,-0.0022222222222222222,-13.375,-5.5625,-45.0,28,-0.0491943359375,0.00311279296875,0.0,0.998779296875,359.9375,-0.3125,5.625
1563146598.237422,359.9375,-0.3125,5.625,-0.06,-0.96,9.75,-0.02,0.04,-0.2,0.0,0.0,0.0,-14.0625,-5.25,-46.5625,28,-0.0491943359375,0.00311279296875,0.0,0.998779296875,359.9375,-0.3125,5.625
1563146598.277537,359.9375,-0.3125,5.625,-0.06,-0.96,9.75,0.0,0.02,-0.18,0.0022222222222222222,0.0022222222222222222,0.0,-14.875,-5.5625,-46.0625,28,-0.0491943359375,0.00311279296875,0.0,0.998779296875,359.9375,-0.3125,5.625
1563146598.319609,359.9375,-0.3125,5.625,-0.06,-0.96,9.75,-0.01,0.0,-0.16,0.0,-0.0011111111111111111,-0.0011111111111111111,-14.875,-5.5625,-46.0625,28,-0.0491943359375,0.00311279296875,0.0,0.998779296875,359.9375,-0.3125,5.625
1563146598.36047,359.9375,-0.3125,5.625,-0.06,-0.96,9.75,0.0,0.0,-0.16,0.0022222222222222222,-0.0011111111111111111,0.0011111111111111111,-14.875,-5.25,-45.75,28,-0.0491943359375,0.00311279296875,0.0,0.998779296875,359.9375,-0.3125,5.625
1563146598.399876,359.9375,-0.3125,5.625,-0.06,-0.96,9.75,0.0,0.01,-0.19,-0.0011111111111111111,0.0,0.0,-14.0625,-6.0,-46.875,28,-0.0491943359375,0.00311279296875,0.0,0.998779296875,359.9375,-0.3125,5.625
1563146598.438172,359.9375,-0.3125,5.625,-0.06,-0.96,9.75,0.0,0.0,-0.17,0.0,0.0022222222222222222,0.0022222222222222222,-14.875,-5.25,-46.5625,28,-0.0491943359375,0.00311279296875,0.0,0.998779296875,359.9375,-0.3125,5.625
1563146598.47839,359.9375,-0.3125,5.625,-0.06,-0.96,9.75,0.0,0.01,-0.17,0.0,0.0011111111111111111,0.0,-13.75,-5.5625,-46.5625,28,-0.0491943359375,0.00311279296875,0.0,0.998779296875,359.9375,-0.3125,5.625
1563146598.520231,359.9375,-0.3125,5.625,-0.06,-0.96,9.75,0.01,0.01,-0.17,0.0011111111111111111,0.0022222222222222222,0.0022222222222222222,-13.75,-5.5625,-46.5625,28,-0.0491943359375,0.00311279296875,0.0,0.998779296875,359.9375,-0.3125,5.625
1563146598.561297,359.9375,-0.3125,5.625,-0.06,-0.96,9.75,0.0,0.01,-0.17,0.0,-0.0011111111111111111,0.0011111111111111111,-13.75,-6.0,-45.375,28,-0.0491943359375,0.00311279296875,0.0,0.998779296875,359.9375,-0.3125,5.625
1563146598.600651,359.9375,-0.3125,5.625,-0.06,-0.96,9.75,-0.01,0.01,-0.19,0.0011111111111111111,0.0011111111111111111,0.0022222222222222222,-13.75,-6.0,-46.5625,28,-0.0491943359375,0.00311279296875,0.0,0.998779296875,359.9375,-0.3125,5.625
1563146598.639082,359.9375,-0.3125,5.625,-0.06,-0.96,9.75,0.0,0.0,-0.17,0.0,0.0022222222222222222,0.0011111111111111111,-14.5,-5.5625,-46.875,28,-0.0491943359375,0.00311279296875,0.0,0.998779296875,359.9375,-0.3125,5.625
1563146598.679255,359.9375,-0.3125,5.625,-0.06,-0.96,9.75,-0.01,0.01,-0.2,0.0,0.0033333333333333335,-0.0011111111111111111,-14.875,-5.5625,-46.0625,28,-0.0491943359375,0.00311279296875,0.0,0.998779296875,359.9375,-0.3125,5.625
1563146598.722874,359.9375,-0.3125,5.625,-0.06,-0.96,9.75,-0.01,0.0,-0.17,0.0011111111111111111,0.0,0.0,-14.875,-5.5625,-46.0625,28,-0.0491943359375,0.00311279296875,0.0,0.998779296875,359.9375,-0.3125,5.625
1563146598.763818,359.9375,-0.3125,5.625,-0.06,-0.96,9.75,0.0,0.01,-0.14,0.0,-0.0011111111111111111,0.0022222222222222222,-14.0625,-6.0,-45.75,28,-0.0491943359375,0.00311279296875,0.0,0.998779296875,359.9375,-0.3125,5.625
1563146598.803249,359.9375,-0.3125,5.625,-0.06,-0.96,9.75,0.0,0.0,-0.19,0.0,0.0022222222222222222,-0.0011111111111111111,-14.0625,-5.5625,-46.1875,28,-0.0491943359375,0.00311279296875,0.0,0.998779296875,359.9375,-0.3125,5.625
1563146598.841609,359.9375,-0.3125,5.625,-0.06,-0.96,9.75,0.0,0.02,-0.19,0.0011111111111111111,0.0011111111111111111,-0.0011111111111111111,-14.0625,-6.0,-45.75,28,-0.0491943359375,0.00311279296875,0.0,0.998779296875,359.9375,-0.3125,5.625
1563146598.880009,359.9375,-0.3125,5.625,-0.06,-0.96,9.75,-0.01,0.04,-0.17,0.0011111111111111111,0.0011111111111111111,0.0,-14.5,-4.875,-46.5625,28,-0.0491943359375,0.00311279296875,0.0,0.998779296875,359.9375,-0.3125,5.625
1563146598.921967,359.9375,-0.3125,5.625,-0.06,-0.96,9.75,0.02,0.0,-0.15,0.0,0.0,0.0,-14.5,-4.875,-46.5625,28,-0.0491943359375,0.00311279296875,0.0,0.998779296875,359.9375,-0.3125,5.625
1563146598.962804,359.9375,-0.3125,5.625,-0.06,-0.96,9.75,-0.01,0.0,-0.17,-0.0011111111111111111,0.0011111111111111111,0.0011111111111111111,-13.75,-6.0,-45.75,28,-0.0491943359375,0.00311279296875,0.0,0.998779296875,359.9375,-0.3125,5.625
1563146599.002256,359.9375,-0.3125,5.625,-0.06,-0.96,9.75,0.01,0.02,-0.16,0.0,0.0033333333333333335,-0.0011111111111111111,-13.75,-6.0,-46.1875,28,-0.0491943359375,0.00311279296875,0.0,0.998779296875,359.9375,-0.3125,5.625
1563146599.040675,359.9375,-0.3125,5.625,-0.06,-0.96,9.75,-0.01,0.03,-0.19,0.0011111111111111111,0.0033333333333333335,0.0011111111111111111,-14.0625,-6.0,-45.75,28,-0.0491943359375,0.00311279296875,0.0,0.998779296875,359.9375,-0.3125,5.625
1563146599.0809,359.9375,-0.3125,5.625,-0.06,-0.96,9.75,0.0,0.0,-0.17,0.0,-0.0011111111111111111,0.0,-15.25,-5.5625,-46.5625,28,-0.0491943359375,0.00311279296875,0.0,0.998779296875,359.9375,-0.3125,5.625
1563146599.122722,359.9375,-0.3125,5.625,-0.06,-0.96,9.75,0.0,0.02,-0.17,0.0,0.0011111111111111111,0.0011111111111111111,-15.25,-5.5625,-46.5625,28,-0.0491943359375,0.00311279296875,0.0,0.998779296875,359.9375,-0.3125,5.625
1563146599.163545,359.9375,-0.3125,5.625,-0.06,-0.96,9.75,-0.01,0.0,-0.15,-0.0011111111111111111,0.0011111111111111111,0.0,-14.0625,-5.25,-46.1875,28,-0.0491943359375,0.00311279296875,0.0,0.998779296875,359.9375,-0.3125,5.625
1563146599.20296,359.9375,-0.3125,5.625,-0.06,-0.96,9.75,0.0,0.01,-0.18,0.0,0.0011111111111111111,0.0011111111111111111,-14.875,-6.375,-46.5625,28,-0.0491943359375,0.00311279296875,0.0,0.998779296875,359.9375,-0.3125,5.625
1563146599.241406,359.9375,-0.3125,5.625,-0.06,-0.96,9.75,0.0,0.01,-0.16,0.0022222222222222222,-0.0011111111111111111,0.0022222222222222222,-14.875,-6.0,-46.5625,28,-0.0491943359375,0.00311279296875,0.0,0.998779296875,359.9375,-0.3125,5.625
1563146599.281599,359.9375,-0.3125,5.625,-0.06,-0.96,9.75,0.0,0.01,-0.14,-0.0011111111111111111,-0.0011111111111111111,0.0,-14.0625,-4.875,-46.5625,28,-0.0491943359375,0.00311279296875,0.0,0.998779296875,359.9375,-0.3125,5.625
1563146599.323525,359.9375,-0.3125,5.625,-0.06,-0.96,9.75,0.0,0.01,-0.14,0.0011111111111111111,0.0,0.0011111111111111111,-14.0625,-4.875,-46.5625,28,-0.0491943359375,0.00311279296875,0.0,0.998779296875,359.9375,-0.3125,5.625
1563146599.364451,359.9375,-0.3125,5.625,-0.06,-0.96,9.75,0.0,0.01,-0.19,0.0,-0.0011111111111111111,0.0,-13.75,-4.875,-46.1875,28,-0.0491943359375,0.00311279296875,0.0,0.998779296875,359.9375,-0.3125,5.625
1563146599.403868,359.9375,-0.3125,5.625,-0.06,-0.96,9.75,0.01,0.02,-0.17,0.0,0.0011111111111111111,0.0022222222222222222,-14.0625,-5.5625,-45.375,28,-0.0491943359375,0.00311279296875,0.0,0.998779296875,359.9375,-0.3125,5.625
1563146599.442237,359.9375,-0.3125,5.625,-0.06,-0.96,9.75,0.0,0.03,-0.17,0.0,-0.0011111111111111111,0.0011111111111111111,-13.75,-6.375,-46.1875,28,-0.0491943359375,0.00311279296875,0.0,0.998779296875,359.9375,-0.3125,5.625
1563146599.482446,359.9375,-0.3125,5.625,-0.06,-0.96,9.75,0.0,0.0,-0.17,-0.0011111111111111111,0.0,-0.0022222222222222222,-14.5,-5.25,-46.1875,28,-0.0491943359375,0.00311279296875,0.0,0.998779296875,359.9375,-0.3125,5.625
1563146599.524335,359.9375,-0.3125,5.625,-0.06,-0.96,9.75,0.0,0.0,-0.16,0.0,0.0022222222222222222,0.0033333333333333335,-14.5,-5.25,-46.1875,28,-0.0491943359375,0.00311279296875,0.0,0.998779296875,359.9375,-0.3125,5.625
1563146599.565142,359.9375,-0.3125,5.625,-0.06,-0.96,9.75,0.02,0.02,-0.19,0.0011111111111111111,-0.0022222222222222222,0.0,-14.875,-5.5625,-45.375,28,-0.0491943359375,0.00311279296875,0.0,0.998779296875,359.9375,-0.3125,5.625
1563146599.604573,359.9375,-0.3125,5.625,-0.06,-0.96,9.75,0.0,0.02,-0.17,0.0011111111111111111,-0.0011111111111111111,-0.0011111111111111111,-14.5,-5.5625,-45.75,28,-0.0491943359375,0.00311279296875,0.0,0.998779296875,359.9375,-0.3125,5.625
1563146599.643037,359.9375,-0.3125,5.625,-0.06,-0.96,9.75,0.0,0.0,-0.16,-0.0011111111111111111,0.0,0.0022222222222222222,-13.75,-5.5625,-46.1875,28,-0.0491943359375,0.00311279296875,0.0,0.998779296875,359.9375,-0.3125,5.625
1563146599.683238,359.9375,-0.3125,5.625,-0.06,-0.96,9.75,0.0,0.01,-0.16,0.0022222222222222222,-0.0022222222222222222,0.0,-14.0625,-5.5625,-46.5625,28,-0.0491943359375,0.00311279296875,0.0,0.998779296875,359.9375,-0.3125,5.625
1563146599.72686,359.9375,-0.3125,5.625,-0.06,-0.96,9.75,0.0,0.01,-0.14,0.0011111111111111111,-0.0033333333333333335,-0.0011111111111111111,-14.0625,-5.5625,-46.5625,28,-0.0491943359375,0.00311279296875,0.0,0.998779296875,359.9375,-0.3125,5.625
1563146599.767824,359.9375,-0.3125,5.625,-0.06,-0.96,9.75,-0.01,0.01,-0.19,0.0,-0.0022222222222222222,0.0011111111111111111,-15.5625,-6.375,-46.0625,28,-0.0491943359375,0.00311279296875,0.0,0.998779296875,359.9375,-0.3125,5.625
1563146599.807183,359.9375,-0.3125,5.625,-0.06,-0.96,9.75,0.0,0.01,-0.2,0.0011111111111111111,-0.0022222222222222222,0.0,-14.0625,-5.5625,-46.875,28,-0.0491943359375,0.00311279296875,0.0,0.998779296875,359.9375,-0.3125,5.625
1563146599.845531,359.9375,-0.3125,5.625,-0.06,-0.96,9.75,0.01,0.01,-0.21,0.0,0.0011111111111111111,0.0,-14.0625,-6.0,-46.5625,28,-0.0491943359375,0.00311279296875,0.0,0.998779296875,359.9375,-0.3125,5.625
1563146599.884039,359.9375,-0.3125,5.625,-0.06,-0.96,9.75,0.0,0.01,-0.16,0.0,-0.0022222222222222222,-0.0011111111111111111,-14.875,-5.5625,-47.25,28,-0.0491943359375,0.00311279296875,0.0,0.998779296875,359.9375,-0.3125,5.625
1563146599.925913,359.9375,-0.3125,5.625,-0.06,-0.96,9.75,0.0,0.01,-0.16,0.0,0.0,-0.0011111111111111111,-14.875,-5.5625,-47.25,28,-0.0491943359375,0.00311279296875,0.0,0.998779296875,359.9375,-0.3125,5.625
1563146599.966738,359.9375,-0.3125,5.625,-0.06,-0.96,9.75,-0.01,0.01,-0.16,0.0011111111111111111,-0.0011111111111111111,-0.0011111111111111111,-13.375,-5.5625,-45.75,28,-0.0491943359375,0.00311279296875,0.0,0.998779296875,359.9375,-0.3125,5.625
1563146600.006145,359.9375,-0.3125,5.625,-0.06,-0.96,9.75,0.0,0.01,-0.16,0.0011111111111111111,-0.0022222222222222222,0.0,-14.875,-4.875,-46.1875,28,-0.0491943359375,0.00311279296875,0.0,0.998779296875,359.9375,-0.3125,5.625
1563146600.044602,359.9375,-0.3125,5.625,-0.06,-0.96,9.75,-0.02,0.01,-0.17,0.0022222222222222222,-0.0022222222222222222,0.0,-13.375,-5.5625,-46.1875,28,-0.0491943359375,0.00311279296875,0.0,0.998779296875,359.9375,-0.3125,5.625
1563146600.084735,359.9375,-0.3125,5.625,-0.06,-0.96,9.75,0.0,0.02,-0.15,0.0011111111111111111,0.0,-0.0011111111111111111,-13.375,-5.25,-46.0625,28,-0.0491943359375,0.00311279296875,0.0,0.998779296875,359.9375,-0.3125,5.625
1563146600.126557,359.9375,-0.3125,5.625,-0.06,-0.96,9.75,0.0,0.0,-0.18,0.0,-0.0011111111111111111,0.0,-13.375,-5.25,-46.0625,28,-0.0491943359375,0.00311279296875,0.0,0.998779296875,359.9375,-0.3125,5.625
1563146600.167586,359.9375,-0.3125,5.625,-0.06,-0.96,9.75,0.0,0.02,-0.17,0.0011111111111111111,0.0,-0.0011111111111111111,-14.0625,-5.5625,-46.5625,28,-0.0491943359375,0.00311279296875,0.0,0.998779296875,359.9375,-0.3125,5.625
1563146600.206907,359.9375,-0.3125,5.625,-0.06,-0.96,9.75,0.0,0.01,-0.18,0.0,-0.0022222222222222222,0.0011111111111111111,-14.0625,-5.25,-46.1875,28,-0.0491943359375,0.00311279296875,0.0,0.998779296875,359.9375,-0.3125,5.625
1563146600.245365,359.9375,-0.3125,5.625,-0.06,-0.96,9.75,0.0,0.02,-0.17,-0.0011111111111111111,-0.0022222222222222222,0.0,-15.25,-6.0,-46.5625,28,-0.0491943359375,0.00311279296875,0.0,0.998779296875,359.9375,-0.3125,5.625
1563146600.285493,359.9375,-0.3125,5.625,-0.06,-0.96,9.75,0.0,0.0,-0.18,0.0,-0.0022222222222222222,0.0011111111111111111,-13.75,-5.5625,-46.1875,28,-0.0491943359375,0.00311279296875,0.0,0.998779296875,359.9375,-0.3125,5.625
1563146600.327378,359.9375,-0.3125,5.625,-0.06,-0.96,9.75,-0.01,0.02,-0.15,-0.0011111111111111111,0.0,0.0,-13.75,-5.5625,-46.1875,28,-0.0491943359375,0.00311279296875,0.0,0.998779296875,359.9375,-0.3125,5.625
1563146600.368202,359.9375,-0.3125,5.625,-0.06,-0.96,9.75,0.0,0.02,-0.15,-0.0022222222222222222,0.0022222222222222222,-0.0011111111111111111,-14.5,-6.375,-45.75,28,-0.0491943359375,0.00311279296875,0.0,0.998779296875,359.9375,-0.3125,5.625
1563146600.407651,359.9375,-0.3125,5.625,-0.06,-0.96,9.75,-0.01,0.04,-0.18,0.0,0.0011111111111111111,-0.0011111111111111111,-13.75,-5.5625,-46.1875,28,-0.0491943359375,0.00311279296875,0.0,0.998779296875,359.9375,-0.3125,5.625
1563146600.446172,359.9375,-0.3125,5.625,-0.06,-0.96,9.75,-0.01,0.01,-0.18,0.0,-0.0011111111111111111,0.0011111111111111111,-14.0625,-5.25,-46.1875,28,-0.0491943359375,0.00311279296875,0.0,0.998779296875,359.9375,-0.3125,5.625
1563146600.486256,359.9375,-0.3125,5.625,-0.06,-0.96,9.75,0.0,0.01,-0.15,0.0011111111111111111,-0.0011111111111111111,0.0011111111111111111,-13.75,-5.5625,-46.875,28,-0.0491943359375,0.00311279296875,0.0,0.998779296875,359.9375,-0.3125,5.625
1563146600.528077,359.9375,-0.3125,5.625,-0.06,-0.96,9.75,0.0,0.01,-0.15,0.0,-0.0011111111111111111,-0.0022222222222222222,-13.75,-5.5625,-46.875,28,-0.0491943359375,0.00311279296875,0.0,0.998779296875,359.9375,-0.3125,5.625
1563146600.568955,359.9375,-0.3125,5.625,-0.06,-0.96,9.75,-0.01,0.03,-0.19,-0.0011111111111111111,-0.0011111111111111111,0.0,-14.0625,-5.5625,-46.5625,28,-0.0491943359375,0.00311279296875,0.0,0.998779296875,359.9375,-0.3125,5.625
1563146600.608438,359.9375,-0.3125,5.625,-0.06,-0.96,9.75,0.0,0.02,-0.22,-0.0022222222222222222,0.0022222222222222222,-0.0033333333333333335,-13.75,-6.0,-46.5625,28,-0.0491943359375,0.00311279296875,0.0,0.998779296875,359.9375,-0.3125,5.625
1563146600.646914,359.9375,-0.3125,5.625,-0.06,-0.96,9.75,0.0,0.01,-0.17,-0.0011111111111111111,0.0011111111111111111,-0.0022222222222222222,-13.75,-4.875,-45.75,28,-0.0491943359375,0.00311279296875,0.0,0.998779296875,359.9375,-0.3125,5.625
1563146600.687034,359.9375,-0.3125,5.625,-0.06,-0.96,9.75,0.0,0.01,-0.18,0.0011111111111111111,0.0,-0.0022222222222222222,-13.75,-4.875,-48.0625,28,-0.0491943359375,0.00311279296875,0.0,0.998779296875,359.9375,-0.3125,5.625
1563146600.730601,359.9375,-0.3125,5.625,-0.06,-0.96,9.75,0.0,0.02,-0.18,-0.0011111111111111111,0.0011111111111111111,-0.0011111111111111111,-13.75,-4.875,-48.0625,28,-0.0491943359375,0.00311279296875,0.0,0.998779296875,359.9375,-0.3125,5.625
1563146600.771561,359.9375,-0.3125,5.625,-0.06,-0.96,9.75,-0.01,0.02,-0.15,0.0,0.0011111111111111111,-0.0011111111111111111,-14.875,-5.5625,-46.5625,28,-0.0491943359375,0.00311279296875,0.0,0.998779296875,359.9375,-0.3125,5.625
1563146600.810913,359.9375,-0.3125,5.625,-0.06,-0.96,9.75,0.0,0.01,-0.2,0.0,0.0011111111111111111,0.0022222222222222222,-14.0625,-4.875,-46.5625,28,-0.0491943359375,0.00311279296875,0.0,0.998779296875,359.9375,-0.3125,5.625
1563146600.84936,359.9375,-0.3125,5.625,-0.06,-0.96,9.75,0.01,0.03,-0.19,0.0011111111111111111,-0.0011111111111111111,0.0011111111111111111,-14.5,-5.5625,-45.75,28,-0.0491943359375,0.00311279296875,0.0,0.998779296875,359.9375,-0.3125,5.625
1563146600.887783,359.9375,-0.3125,5.625,-0.06,-0.96,9.75,0.0,0.01,-0.16,0.0011111111111111111,-0.0022222222222222222,0.0,-13.75,-5.5625,-46.1875,28,-0.0491943359375,0.00311279296875,0.0,0.998779296875,359.9375,-0.3125,5.625
1563146600.929605,359.9375,-0.3125,5.625,-0.06,-0.96,9.75,0.0,0.01,-0.15,0.0011111111111111111,-0.0011111111111111111,0.0,-13.75,-5.5625,-46.1875,28,-0.0491943359375,0.00311279296875,0.0,0.998779296875,359.9375,-0.3125,5.625
1563146600.970636,359.9375,-0.3125,5.625,-0.06,-0.96,9.75,-0.01,0.01,-0.18,0.0011111111111111111,-0.0011111111111111111,-0.0011111111111111111,-14.875,-4.875,-46.875,28,-0.0491943359375,0.00311279296875,0.0,0.998779296875,359.9375,-0.3125,5.625
1563146601.009875,359.9375,-0.3125,5.625,-0.06,-0.96,9.75,-0.01,0.02,-0.17,0.0,-0.0011111111111111111,0.0011111111111111111,-14.875,-5.25,-46.1875,28,-0.0491943359375,0.00311279296875,0.0,0.998779296875,359.9375,-0.3125,5.625
1563146601.04834,359.9375,-0.3125,5.625,-0.06,-0.96,9.75,0.0,0.02,-0.19,-0.0011111111111111111,0.0,0.0,-14.875,-5.5625,-46.875,28,-0.0491943359375,0.00311279296875,0.0,0.998779296875,359.9375,-0.3125,5.625
1563146601.088543,359.9375,-0.3125,5.625,-0.06,-0.96,9.75,0.0,0.0,-0.15,0.0022222222222222222,-0.0011111111111111111,0.0022222222222222222,-14.875,-6.0,-46.1875,28,-0.0491943359375,0.00311279296875,0.0,0.998779296875,359.9375,-0.3125,5.625
1563146601.138614,359.9375,-0.3125,5.625,-0.06,-0.96,9.75,0.0,0.0,-0.17,0.0,-0.0022222222222222222,0.0011111111111111111,-14.5,-5.25,-46.1875,28,-0.0491943359375,0.00311279296875,0.0,0.998779296875,359.9375,-0.3125,5.625
1563146601.180526,359.9375,-0.3125,5.625,-0.06,-0.96,9.75,0.0,0.0,-0.16,0.0,0.0011111111111111111,0.0,-14.5,-5.25,-46.1875,28,-0.0491943359375,0.00311279296875,0.0,0.998779296875,359.9375,-0.3125,5.625
1563146601.221945,359.9375,-0.3125,5.625,-0.06,-0.96,9.75,0.0,0.01,-0.19,0.0011111111111111111,-0.0044444444444444444,0.0022222222222222222,-14.0625,-5.5625,-45.75,28,-0.0491943359375,0.00311279296875,0.0,0.998779296875,359.9375,-0.3125,5.625
1563146601.260942,359.9375,-0.3125,5.625,-0.06,-0.96,9.75,0.0,0.01,-0.18,0.0,0.0,-0.0011111111111111111,-14.5,-5.5625,-46.5625,28,-0.0491943359375,0.00311279296875,0.0,0.998779296875,359.9375,-0.3125,5.625
1563146601.299387,359.9375,-0.3125,5.625,-0.06,-0.96,9.75,0.0,0.03,-0.18,0.0,-0.0011111111111111111,0.0011111111111111111,-14.875,-4.5,-46.1875,28,-0.0491943359375,0.00311279296875,0.0,0.998779296875,359.9375,-0.3125,5.625
1563146601.339439,359.9375,-0.3125,5.625,-0.06,-0.96,9.75,-0.01,0.02,-0.15,0.0,0.0022222222222222222,0.0,-14.875,-5.5625,-45.75,28,-0.0491943359375,0.00311279296875,0.0,0.998779296875,359.9375,-0.3125,5.625
1563146601.379599,359.9375,-0.3125,5.625,-0.06,-0.96,9.75,-0.01,0.0,-0.18,0.0022222222222222222,0.0033333333333333335,0.0,-14.875,-5.5625,-45.75,28,-0.0491943359375,0.00311279296875,0.0,0.998779296875,359.9375,-0.3125,5.625
1563146601.415538,359.9375,-0.3125,5.625,-0.06,-0.96,9.75,0.0,0.01,-0.17,-0.0011111111111111111,0.0,0.0,-13.75,-5.5625,-46.5625,28,-0.0491943359375,0.00311279296875,0.0,0.998779296875,359.9375,-0.3125,5.625
1563146601.453505,359.9375,-0.3125,5.625,-0.06,-0.96,9.75,0.0,0.01,-0.18,0.0011111111111111111,-0.0033333333333333335,-0.0022222222222222222,-15.25,-6.375,-46.5625,28,-0.0491943359375,0.00311279296875,0.0,0.998779296875,359.9375,-0.3125,5.625
1563146601.49192,359.9375,-0.3125,5.625,-0.06,-0.96,9.75,0.0,0.01,-0.15,0.0,0.0,0.0011111111111111111,-13.375,-5.25,-45.375,28,-0.0491943359375,0.00311279296875,0.0,0.998779296875,359.9375,-0.3125,5.625
1563146601.53207,359.9375,-0.3125,5.625,-0.06,-0.96,9.75,0.0,0.01,-0.17,-0.0011111111111111111,0.0,-0.0022222222222222222,-13.375,-5.25,-45.375,28,-0.0491943359375,0.00311279296875,0.0,0.998779296875,359.9375,-0.3125,5.625
1563146601.572836,359.9375,-0.3125,5.625,-0.06,-0.96,9.75,-0.01,0.01,-0.18,0.0,-0.0011111111111111111,-0.0011111111111111111,-14.5,-6.0,-46.5625,28,-0.0491943359375,0.00311279296875,0.0,0.998779296875,359.9375,-0.3125,5.625
1563146601.612298,359.9375,-0.3125,5.625,-0.06,-0.96,9.75,0.0,0.01,-0.18,0.0011111111111111111,-0.0011111111111111111,0.0,-14.875,-6.375,-45.75,28,-0.0491943359375,0.00311279296875,0.0,0.998779296875,359.9375,-0.3125,5.625
1563146601.65066,359.9375,-0.3125,5.625,-0.06,-0.96,9.75,0.0,0.01,-0.18,0.0022222222222222222,0.0,-0.0022222222222222222,-14.5,-5.25,-46.1875,28,-0.0491943359375,0.00311279296875,0.0,0.998779296875,359.9375,-0.3125,5.625
1563146601.690923,359.9375,-0.3125,5.625,-0.06,-0.96,9.75,0.0,0.01,-0.17,0.0,-0.0033333333333333335,0.0011111111111111111,-14.875,-5.5625,-48.0625,28,-0.0491943359375,0.00311279296875,0.0,0.998779296875,359.9375,-0.3125,5.625
1563146601.734508,359.9375,-0.3125,5.625,-0.06,-0.96,9.75,0.0,0.01,-0.15,0.0,0.0011111111111111111,0.0011111111111111111,-14.875,-5.5625,-48.0625,28,-0.0491943359375,0.00311279296875,0.0,0.998779296875,359.9375,-0.3125,5.625
1563146601.77528,359.9375,-0.3125,5.625,-0.06,-0.96,9.75,0.0,0.01,-0.16,0.0,0.0,0.0022222222222222222,-13.75,-4.875,-46.1875,28,-0.0491943359375,0.00311279296875,0.0,0.998779296875,359.9375,-0.3125,5.625
1563146601.814959,359.9375,-0.3125,5.625,-0.06,-0.96,9.75,-0.01,0.01,-0.16,0.0,-0.0011111111111111111,0.0011111111111111111,-14.875,-4.875,-45.375,28,-0.0491943359375,0.00311279296875,0.0,0.998779296875,359.9375,-0.3125,5.625
1563146601.85327,359.9375,-0.3125,5.625,-0.06,-0.96,9.75,0.0,0.01,-0.19,0.0011111111111111111,0.0011111111111111111,0.0011111111111111111,-13.75,-5.5625,-45.375,28,-0.0491943359375,0.00311279296875,0.0,0.998779296875,359.9375,-0.3125,5.625
1563146601.891621,359.9375,-0.3125,5.625,-0.06,-0.96,9.75,0.0,0.01,-0.17,0.0,0.0011111111111111111,-0.0022222222222222222,-14.0625,-5.5625,-46.875,28,-0.0491943359375,0.00311279296875,0.0,0.998779296875,359.9375,-0.3125,5.625
1563146601.933485,359.9375,-0.3125,5.625,-0.06,-0.96,9.75,0.0,0.01,-0.18,0.0,0.0011111111111111111,0.0011111111111111111,-14.0625,-5.5625,-46.875,28,-0.0491943359375,0.00311279296875,0.0,0.998779296875,359.9375,-0.3125,5.625
1563146601.974472,359.9375,-0.3125,5.625,-0.06,-0.96,9.75,0.0,0.01,-0.19,0.0,0.0011111111111111111,0.0011111111111111111,-13.75,-4.875,-46.5625,28,-0.0491943359375,0.00311279296875,0.0,0.998779296875,359.9375,-0.3125,5.625
1563146602.013911,359.9375,-0.3125,5.625,-0.06,-0.96,9.75,0.0,0.01,-0.18,0.0,-0.0022222222222222222,0.0011111111111111111,-14.0625,-5.25,-47.25,28,-0.0491943359375,0.00311279296875,0.0,0.998779296875,359.9375,-0.3125,5.625
1563146602.052208,359.9375,-0.3125,5.625,-0.06,-0.96,9.75,0.0,0.01,-0.15,-0.0011111111111111111,-0.0022222222222222222,0.0022222222222222222,-14.0625,-5.5625,-45.75,28,-0.0491943359375,0.00311279296875,0.0,0.998779296875,359.9375,-0.3125,5.625
1563146602.09246,359.9375,-0.3125,5.625,-0.06,-0.96,9.75,0.0,0.0,-0.18,0.0,0.0,0.0,-14.5,-6.0,-46.1875,28,-0.0491943359375,0.00311279296875,0.0,0.998779296875,359.9375,-0.3125,5.625
1563146602.1344,359.9375,-0.3125,5.625,-0.06,-0.96,9.75,0.0,0.01,-0.17,-0.0011111111111111111,0.0,0.0022222222222222222,-14.5,-6.0,-46.1875,28,-0.0491943359375,0.00311279296875,0.0,0.998779296875,359.9375,-0.3125,5.625
1563146602.175076,359.9375,-0.3125,5.625,-0.06,-0.96,9.75,0.01,0.01,-0.19,0.0,-0.0011111111111111111,0.0,-14.875,-5.25,-45.75,28,-0.0491943359375,0.00311279296875,0.0,0.998779296875,359.9375,-0.3125,5.625
1563146602.21472,359.9375,-0.3125,5.625,-0.06,-0.96,9.75,-0.02,0.0,-0.19,0.0,-0.0011111111111111111,0.0011111111111111111,-14.875,-6.0,-46.5625,28,-0.0491943359375,0.00311279296875,0.0,0.998779296875,359.9375,-0.3125,5.625
1563146602.253004,359.9375,-0.3125,5.625,-0.06,-0.96,9.75,0.0,0.01,-0.18,-0.0011111111111111111,0.0,0.0022222222222222222,-14.5,-4.875,-46.1875,28,-0.0491943359375,0.00311279296875,0.0,0.998779296875,359.9375,-0.3125,5.625
1563146602.293149,359.9375,-0.3125,5.625,-0.06,-0.96,9.75,-0.01,0.01,-0.18,0.0011111111111111111,0.0011111111111111111,-0.0022222222222222222,-14.5,-6.0,-45.75,28,-0.0491943359375,0.00311279296875,0.0,0.998779296875,359.9375,-0.3125,5.625
1563146602.335079,359.9375,-0.3125,5.625,-0.06,-0.96,9.75,0.0,0.01,-0.17,-0.0011111111111111111,0.0,0.0,-14.5,-6.0,-45.75,28,-0.0491943359375,0.00311279296875,0.0,0.998779296875,359.9375,-0.3125,5.625
1563146602.375925,359.9375,-0.3125,5.625,-0.06,-0.96,9.75,0.0,0.02,-0.2,-0.0011111111111111111,-0.0011111111111111111,0.0011111111111111111,-14.5,-5.5625,-46.1875,28,-0.0491943359375,0.00311279296875,0.0,0.998779296875,359.9375,-0.3125,5.625
1563146602.415378,359.9375,-0.3125,5.625,-0.06,-0.96,9.75,0.0,0.03,-0.18,-0.0011111111111111111,0.0,0.0,-14.0625,-5.5625,-47.0,28,-0.0491943359375,0.00311279296875,0.0,0.998779296875,359.9375,-0.3125,5.625
1563146602.453825,359.9375,-0.3125,5.625,-0.06,-0.96,9.75,0.01,0.01,-0.17,0.0011111111111111111,0.0,-0.0022222222222222222,-13.75,-6.0,-45.0,28,-0.0491943359375,0.00311279296875,0.0,0.998779296875,359.9375,-0.3125,5.625
1563146602.493961,359.9375,-0.3125,5.625,-0.06,-0.96,9.75,0.0,0.02,-0.18,-0.0011111111111111111,0.0011111111111111111,-0.0011111111111111111,-14.5,-6.0,-46.875,28,-0.0491943359375,0.00311279296875,0.0,0.998779296875,359.9375,-0.3125,5.625
1563146602.535772,359.9375,-0.3125,5.625,-0.06,-0.96,9.75,0.0,0.0,-0.17,0.0,0.0022222222222222222,0.0,-14.5,-6.0,-46.875,28,-0.0491943359375,0.00311279296875,0.0,0.998779296875,359.9375,-0.3125,5.625
1563146602.576761,359.9375,-0.3125,5.625,-0.06,-0.96,9.75,0.0,0.0,-0.18,0.0,0.0011111111111111111,0.0011111111111111111,-14.875,-5.5625,-46.5625,28,-0.0491943359375,0.00311279296875,0.0,0.998779296875,359.9375,-0.3125,5.625
1563146602.616083,359.9375,-0.3125,5.625,-0.06,-0.96,9.75,0.0,0.01,-0.17,0.0,-0.0011111111111111111,0.0033333333333333335,-14.0625,-6.0,-45.375,28,-0.0491943359375,0.00311279296875,0.0,0.998779296875,359.9375,-0.3125,5.625
1563146602.654606,359.9375,-0.3125,5.625,-0.06,-0.96,9.75,0.0,0.0,-0.2,-0.0011111111111111111,0.0022222222222222222,0.0022222222222222222,-14.875,-5.5625,-46.5625,28,-0.0491943359375,0.00311279296875,0.0,0.998779296875,359.9375,-0.3125,5.625
1563146602.694727,359.9375,-0.3125,5.625,-0.06,-0.96,9.75,0.0,0.01,-0.15,-0.0011111111111111111,0.0022222222222222222,0.0,-13.75,-5.25,-46.1875,28,-0.0491943359375,0.00311279296875,0.0,0.998779296875,359.9375,-0.3125,5.625
1563146602.738474,359.9375,-0.3125,5.625,-0.06,-0.96,9.75,0.0,0.0,-0.18,-0.0011111111111111111,0.0022222222222222222,0.0,-13.75,-5.25,-46.1875,28,-0.0491943359375,0.00311279296875,0.0,0.998779296875,359.9375,-0.3125,5.625
1563146602.779226,359.9375,-0.3125,5.625,-0.06,-0.96,9.75,0.0,0.02,-0.15,0.0011111111111111111,0.0011111111111111111,0.0011111111111111111,-14.5,-5.5625,-45.0,28,-0.0491943359375,0.00311279296875,0.0,0.998779296875,359.9375,-0.3125,5.625
1563146602.81876,359.9375,-0.3125,5.625,-0.06,-0.96,9.75,0.0,0.01,-0.14,0.0,0.0011111111111111111,-0.0011111111111111111,-13.375,-6.0,-45.75,28,-0.0491943359375,0.00311279296875,0.0,0.998779296875,359.9375,-0.3125,5.625
1563146602.857127,359.9375,-0.3125,5.625,-0.06,-0.96,9.75,0.0,0.01,-0.21,0.0011111111111111111,-0.0011111111111111111,0.0,-13.75,-5.5625,-46.1875,28,-0.0491943359375,0.00311279296875,0.0,0.998779296875,359.9375,-0.3125,5.625
1563146602.895626,359.9375,-0.3125,5.625,-0.06,-0.96,9.75,0.0,0.0,-0.16,0.0,-0.0022222222222222222,-0.0011111111111111111,-14.5,-5.5625,-46.1875,28,-0.0491943359375,0.00311279296875,0.0,0.998779296875,359.9375,-0.3125,5.625
1563146602.937514,359.9375,-0.3125,5.625,-0.06,-0.96,9.75,-0.01,0.01,-0.18,0.0011111111111111111,-0.0022222222222222222,-0.0022222222222222222,-14.5,-5.5625,-46.1875,28,-0.0491943359375,0.00311279296875,0.0,0.998779296875,359.9375,-0.3125,5.625
1563146602.978359,359.9375,-0.3125,5.625,-0.06,-0.96,9.75,0.01,0.03,-0.19,0.0011111111111111111,0.0022222222222222222,0.0011111111111111111,-13.75,-5.5625,-45.75,28,-0.0491943359375,0.00311279296875,0.0,0.998779296875,359.9375,-0.3125,5.625
1563146603.017774,359.9375,-0.3125,5.625,-0.06,-0.96,9.75,0.01,0.0,-0.15,0.0011111111111111111,-0.0022222222222222222,0.0011111111111111111,-14.875,-5.5625,-46.1875,28,-0.0491943359375,0.00311279296875,0.0,0.998779296875,359.9375,-0.3125,5.625
1563146603.056119,359.9375,-0.3125,5.625,-0.06,-0.96,9.75,0.0,0.01,-0.2,0.0,0.0022222222222222222,-0.0011111111111111111,-14.5,-5.5625,-47.375,28,-0.0491943359375,0.00311279296875,0.0,0.998779296875,359.9375,-0.3125,5.625
1563146603.096326,359.9375,-0.3125,5.625,-0.06,-0.96,9.75,-0.01,0.01,-0.16,0.0011111111111111111,-0.0011111111111111111,-0.0033333333333333335,-14.875,-5.25,-46.1875,28,-0.0491943359375,0.00311279296875,0.0,0.998779296875,359.9375,-0.3125,5.625
1563146603.138201,359.9375,-0.3125,5.625,-0.06,-0.96,9.75,0.0,0.03,-0.17,0.0011111111111111111,-0.0011111111111111111,-0.0011111111111111111,-14.875,-5.25,-46.1875,28,-0.0491943359375,0.00311279296875,0.0,0.998779296875,359.9375,-0.3125,5.625
1563146603.179177,359.9375,-0.3125,5.625,-0.06,-0.96,9.75,0.0,0.02,-0.16,0.0011111111111111111,0.0011111111111111111,-0.0022222222222222222,-14.0625,-6.0,-45.375,28,-0.0491943359375,0.00311279296875,0.0,0.998779296875,359.9375,-0.3125,5.625
1563146603.218629,359.9375,-0.3125,5.625,-0.06,-0.96,9.75,-0.01,0.0,-0.19,0.0011111111111111111,-0.0022222222222222222,0.0011111111111111111,-13.75,-5.5625,-45.75,28,-0.0491943359375,0.00311279296875,0.0,0.998779296875,359.9375,-0.3125,5.625
1563146603.256939,359.9375,-0.3125,5.625,-0.06,-0.96,9.75,0.0,0.02,-0.19,0.0011111111111111111,0.0011111111111111111,0.0,-15.5625,-6.375,-46.1875,28,-0.0491943359375,0.00311279296875,0.0,0.998779296875,359.9375,-0.3125,5.625
1563146603.297182,359.9375,-0.3125,5.625,-0.06,-0.96,9.75,0.0,0.01,-0.17,0.0011111111111111111,-0.0011111111111111111,0.0011111111111111111,-14.5,-5.5625,-45.75,28,-0.0491943359375,0.00311279296875,0.0,0.998779296875,359.9375,-0.3125,5.625
1563146603.339092,359.9375,-0.3125,5.625,-0.06,-0.96,9.75,0.0,0.01,-0.16,0.0,-0.0033333333333333335,0.0022222222222222222,-14.5,-5.5625,-45.75,28,-0.0491943359375,0.00311279296875,0.0,0.998779296875,359.9375,-0.3125,5.625
1563146603.379819,359.9375,-0.3125,5.625,-0.06,-0.96,9.75,0.0,0.0,-0.16,0.0,0.0011111111111111111,0.0,-14.0625,-4.875,-46.5625,28,-0.0491943359375,0.00311279296875,0.0,0.998779296875,359.9375,-0.3125,5.625
1563146603.419532,359.9375,-0.3125,5.625,-0.06,-0.96,9.75,-0.01,0.02,-0.19,0.0,-0.0011111111111111111,0.0022222222222222222,-13.75,-5.25,-46.1875,28,-0.0491943359375,0.00311279296875,0.0,0.998779296875,359.9375,-0.3125,5.625
1563146603.457817,359.9375,-0.3125,5.625,-0.06,-0.96,9.75,0.0,0.01,-0.16,-0.0022222222222222222,0.0,-0.0011111111111111111,-15.25,-6.0,-45.75,28,-0.0491943359375,0.00311279296875,0.0,0.998779296875,359.9375,-0.3125,5.625
1563146603.497985,359.9375,-0.3125,5.625,-0.06,-0.96,9.75,0.0,0.0,-0.17,0.0011111111111111111,-0.0011111111111111111,0.0,-14.5,-6.0,-46.875,28,-0.0491943359375,0.00311279296875,0.0,0.998779296875,359.9375,-0.3125,5.625
1563146603.539828,359.9375,-0.3125,5.625,-0.06,-0.96,9.75,0.0,0.0,-0.14,0.0,0.0011111111111111111,-0.0011111111111111111,-14.5,-6.0,-46.875,28,-0.0491943359375,0.00311279296875,0.0,0.998779296875,359.9375,-0.3125,5.625
1563146603.58079,359.9375,-0.3125,5.625,-0.06,-0.96,9.75,0.0,0.0,-0.17,0.0,-0.0011111111111111111,0.0011111111111111111,-14.0625,-5.25,-45.375,28,-0.0491943359375,0.00311279296875,0.0,0.998779296875,359.9375,-0.3125,5.625
1563146603.620234,359.9375,-0.3125,5.625,-0.06,-0.96,9.75,0.0,0.02,-0.17,0.0011111111111111111,-0.0011111111111111111,0.0011111111111111111,-14.0625,-5.5625,-45.75,28,-0.0491943359375,0.00311279296875,0.0,0.998779296875,359.9375,-0.3125,5.625
1563146603.658636,359.9375,-0.3125,5.625,-0.06,-0.96,9.75,-0.01,0.01,-0.15,0.0,0.0011111111111111111,0.0,-14.0625,-6.0,-47.0,28,-0.0491943359375,0.00311279296875,0.0,0.998779296875,359.9375,-0.3125,5.625
1563146603.698817,359.9375,-0.3125,5.625,-0.06,-0.96,9.75,0.0,0.0,-0.17,0.0,-0.0022222222222222222,0.0,-14.0625,-6.375,-46.1875,28,-0.0491943359375,0.00311279296875,0.0,0.998779296875,359.9375,-0.3125,5.625
1563146603.742422,359.9375,-0.3125,5.625,-0.06,-0.96,9.75,-0.01,0.03,-0.19,0.0011111111111111111,-0.0033333333333333335,0.0022222222222222222,-14.0625,-6.375,-46.1875,28,-0.0491943359375,0.00311279296875,0.0,0.998779296875,359.9375,-0.3125,5.625
1563146603.783357,359.9375,-0.3125,5.625,-0.06,-0.96,9.75,0.01,0.0,-0.18,0.0011111111111111111,0.0,0.0011111111111111111,-14.0625,-6.375,-46.5625,28,-0.0491943359375,0.00311279296875,0.0,0.998779296875,359.9375,-0.3125,5.625
1563146603.822765,359.9375,-0.3125,5.625,-0.06,-0.96,9.75,0.0,0.01,-0.19,0.0,0.0011111111111111111,0.0022222222222222222,-14.5,-5.5625,-45.75,28,-0.0491943359375,0.00311279296875,0.0,0.998779296875,359.9375,-0.3125,5.625
1563146603.861218,359.9375,-0.3125,5.625,-0.06,-0.96,9.75,-0.01,0.01,-0.19,0.0033333333333333335,0.0,-0.0011111111111111111,-14.0625,-4.875,-46.5625,28,-0.0491943359375,0.00311279296875,0.0,0.998779296875,359.9375,-0.3125,5.625
1563146603.899625,359.9375,-0.3125,5.625,-0.06,-0.96,9.75,0.01,0.02,-0.17,0.0011111111111111111,0.0022222222222222222,0.0011111111111111111,-14.0625,-6.375,-46.1875,28,-0.0491943359375,0.00311279296875,0.0,0.998779296875,359.9375,-0.3125,5.625
1563146603.94149,359.9375,-0.3125,5.625,-0.06,-0.96,9.75,0.0,0.0,-0.15,0.0,0.0011111111111111111,0.0011111111111111111,-14.0625,-6.375,-46.1875,28,-0.0491943359375,0.00311279296875,0.0,0.998779296875,359.9375,-0.3125,5.625
1563146603.982306,359.9375,-0.3125,5.625,-0.06,-0.96,9.75,0.0,0.0,-0.19,0.0,0.0011111111111111111,0.0,-14.875,-5.25,-46.1875,28,-0.0491943359375,0.00311279296875,0.0,0.998779296875,359.9375,-0.3125,5.625
1563146604.021879,359.9375,-0.3125,5.625,-0.06,-0.96,9.75,-0.01,0.02,-0.15,0.0,0.0011111111111111111,0.0022222222222222222,-14.0625,-6.0,-46.5625,28,-0.0491943359375,0.00311279296875,0.0,0.998779296875,359.9375,-0.3125,5.625
1563146604.060334,359.9375,-0.3125,5.625,-0.06,-0.96,9.75,0.0,0.02,-0.17,-0.0011111111111111111,0.0011111111111111111,-0.0011111111111111111,-13.75,-5.25,-46.1875,28,-0.0491943359375,0.00311279296875,0.0,0.998779296875,359.9375,-0.3125,5.625
1563146604.100438,359.9375,-0.3125,5.625,-0.06,-0.96,9.75,0.0,0.01,-0.15,0.0,-0.0011111111111111111,0.0,-14.5,-5.5625,-46.5625,28,-0.0491943359375,0.00311279296875,0.0,0.998779296875,359.9375,-0.3125,5.625
1563146604.142307,359.9375,-0.3125,5.625,-0.06,-0.96,9.75,0.0,0.01,-0.16,0.0011111111111111111,-0.0011111111111111111,0.0,-14.5,-5.5625,-46.5625,28,-0.0491943359375,0.00311279296875,0.0,0.998779296875,359.9375,-0.3125,5.625
1563146604.183302,359.9375,-0.3125,5.625,-0.06,-0.96,9.75,-0.01,0.0,-0.19,0.0022222222222222222,-0.0022222222222222222,0.0,-14.875,-4.875,-46.1875,28,-0.0491943359375,0.00311279296875,0.0,0.998779296875,359.9375,-0.3125,5.625
1563146604.222803,359.9375,-0.3125,5.625,-0.06,-0.96,9.75,-0.01,0.0,-0.18,0.0,0.0011111111111111111,0.0,-14.5,-6.0,-46.1875,28,-0.0491943359375,0.00311279296875,0.0,0.998779296875,359.9375,-0.3125,5.625
1563146604.261119,359.9375,-0.3125,5.625,-0.06,-0.96,9.75,0.01,0.0,-0.19,0.0011111111111111111,-0.0011111111111111111,0.0011111111111111111,-13.75,-4.875,-47.375,28,-0.0491943359375,0.00311279296875,0.0,0.998779296875,359.9375,-0.3125,5.625
1563146604.301282,359.9375,-0.3125,5.625,-0.06,-0.96,9.75,0.01,0.01,-0.18,0.0011111111111111111,0.0011111111111111111,0.0011111111111111111,-13.375,-5.5625,-46.5625,28,-0.0491943359375,0.00311279296875,0.0,0.998779296875,359.9375,-0.3125,5.625
1563146604.343267,359.9375,-0.3125,5.625,-0.06,-0.96,9.75,0.01,0.0,-0.18,-0.0011111111111111111,0.0011111111111111111,0.0,-13.375,-5.5625,-46.5625,28,-0.0491943359375,0.00311279296875,0.0,0.998779296875,359.9375,-0.3125,5.625
1563146604.384087,359.9375,-0.3125,5.625,-0.06,-0.96,9.75,0.0,0.0,-0.17,0.0,0.0011111111111111111,0.0011111111111111111,-13.75,-6.0,-45.75,28,-0.0491943359375,0.00311279296875,0.0,0.998779296875,359.9375,-0.3125,5.625
1563146604.423536,359.9375,-0.3125,5.625,-0.06,-0.96,9.75,-0.01,0.0,-0.16,0.0,0.0022222222222222222,0.0,-14.5,-5.5625,-45.75,28,-0.0491943359375,0.00311279296875,0.0,0.998779296875,359.9375,-0.3125,5.625
1563146604.461861,359.9375,-0.3125,5.625,-0.06,-0.96,9.75,0.0,0.01,-0.19,0.0011111111111111111,0.0,0.0011111111111111111,-14.5,-5.25,-46.5625,28,-0.0491943359375,0.00311279296875,0.0,0.998779296875,359.9375,-0.3125,5.625
1563146604.502066,359.9375,-0.3125,5.625,-0.06,-0.96,9.75,0.0,0.0,-0.18,0.0,0.0,0.0,-14.0625,-6.0,-45.75,28,-0.0491943359375,0.00311279296875,0.0,0.998779296875,359.9375,-0.3125,5.625
1563146604.543912,359.9375,-0.3125,5.625,-0.06,-0.96,9.75,0.02,0.0,-0.17,-0.0011111111111111111,0.0022222222222222222,0.0,-14.0625,-6.0,-45.75,28,-0.0491943359375,0.00311279296875,0.0,0.998779296875,359.9375,-0.3125,5.625
1563146604.58484,359.9375,-0.3125,5.625,-0.06,-0.96,9.75,0.0,0.02,-0.15,0.0022222222222222222,0.0022222222222222222,0.0,-13.75,-5.25,-46.1875,28,-0.0491943359375,0.00311279296875,0.0,0.998779296875,359.9375,-0.3125,5.625
1563146604.624321,359.9375,-0.3125,5.625,-0.06,-0.96,9.75,0.0,0.01,-0.17,0.0011111111111111111,0.0,-0.0011111111111111111,-13.75,-6.0,-45.75,28,-0.0491943359375,0.00311279296875,0.0,0.998779296875,359.9375,-0.3125,5.625
1563146604.662749,359.9375,-0.3125,5.625,-0.06,-0.96,9.75,0.0,0.0,-0.19,0.0,0.0022222222222222222,0.0022222222222222222,-15.25,-6.0,-47.0,28,-0.0491943359375,0.00311279296875,0.0,0.998779296875,359.9375,-0.3125,5.625
1563146604.702933,359.9375,-0.3125,5.625,-0.06,-0.96,9.75,0.01,0.01,-0.18,0.0,0.0,-0.0011111111111111111,-14.875,-4.875,-46.1875,28,-0.0491943359375,0.00311279296875,0.0,0.998779296875,359.9375,-0.3125,5.625
1563146604.746341,359.9375,-0.3125,5.625,-0.06,-0.96,9.75,0.0,0.02,-0.16,-0.0011111111111111111,0.0022222222222222222,-0.0011111111111111111,-14.875,-4.875,-46.1875,28,-0.0491943359375,0.00311279296875,0.0,0.998779296875,359.9375,-0.3125,5.625
1563146604.787465,359.9375,-0.3125,5.625,-0.06,-0.96,9.75,0.01,0.0,-0.14,0.0,-0.0011111111111111111,-0.0011111111111111111,-14.875,-4.875,-47.0,28,-0.0491943359375,0.00311279296875,0.0,0.998779296875,359.9375,-0.3125,5.625
1563146604.826877,359.9375,-0.3125,5.625,-0.06,-0.96,9.75,0.01,0.02,-0.17,0.0,-0.0022222222222222222,0.0022222222222222222,-13.0,-5.5625,-45.0,28,-0.0491943359375,0.00311279296875,0.0,0.998779296875,359.9375,-0.3125,5.625
1563146604.86536,359.9375,-0.3125,5.625,-0.06,-0.96,9.75,0.0,0.02,-0.22,0.0,-0.0022222222222222222,0.0022222222222222222,-14.875,-4.5,-45.375,28,-0.0491943359375,0.00311279296875,0.0,0.998779296875,359.9375,-0.3125,5.625
1563146604.903683,359.9375,-0.3125,5.625,-0.06,-0.96,9.75,0.0,0.02,-0.15,0.0,0.0011111111111111111,-0.0011111111111111111,-14.0625,-6.0,-46.1875,28,-0.0491943359375,0.00311279296875,0.0,0.998779296875,359.9375,-0.3125,5.625
