"time in sec since January 1, 1970, 00:00:00 (UTC)",heading (degrees),roll (degrees),pitch (degrees),Gx (m/s2),Gy (m/s2),Gz (m/s2),ax (m/s2),ay (m/s2),az (m/s2),gyroscope x (deg/sec),gyroscope y (deg/sec),gyroscope z (deg/sec),magnetometer x (micro-Teslas),magnetometer y (micro-Teslas),magnetometer z (micro-Teslas),temperature celcius,quaternion x,quaternion y,quaternion z,quaternion w,heading (deg),roll (deg),pitch (deg)
1563146621.675362,0.0,0.0,0.0,0.0,0.0,0.0,0.0,0.0,0.0,-0.0011111111111111111,0.0022222222222222222,-0.0033333333333333335,-14.5,-7.5,-49.25,28,0.0,0.0,0.0,0.0,0.0,0.0,0.0
1563146621.714466,0.0,0.0,0.0,-0.06,-0.96,9.75,0.0,0.01,-0.18,-0.0022222222222222222,0.0022222222222222222,0.0011111111111111111,-14.5,-7.5,-49.25,28,0.0,0.0,0.0,1.0,0.0,0.0,0.0
1563146621.753294,0.0,-0.375,5.625,-0.06,-0.96,9.75,0.0,0.01,-0.16,-0.0022222222222222222,0.0,0.0011111111111111111,-15.25,-6.0,-48.5,28,-0.04937744140625,0.0032958984375,0.0,0.998779296875,0.0,-0.375,5.625
1563146621.795314,0.0,-0.375,5.625,-0.06,-0.96,9.75,0.01,0.02,-0.15,0.0,0.0033333333333333335,0.0,-15.25,-6.0,-48.5,28,-0.04937744140625,0.0032958984375,0.0,0.998779296875,0.0,-0.375,5.625
1563146621.834927,0.0,-0.375,5.625,-0.06,-0.96,9.75,0.0,0.02,-0.17,-0.0022222222222222222,0.0033333333333333335,-0.0011111111111111111,-14.875,-6.375,-46.5,28,-0.04937744140625,0.0032958984375,0.0,0.998779296875,0.0,-0.375,5.625
1563146621.873752,0.0,-0.375,5.625,-0.06,-0.96,9.75,0.01,0.0,-0.19,-0.0022222222222222222,0.0011111111111111111,0.0,-14.0625,-5.25,-47.25,28,-0.04937744140625,0.0032958984375,0.0,0.998779296875,0.0,-0.375,5.625
1563146621.908022,0.0,-0.375,5.625,-0.06,-0.96,9.75,0.0,0.0,-0.16,-0.0022222222222222222,0.0022222222222222222,0.0011111111111111111,-14.5,-6.0,-46.875,28,-0.04937744140625,0.0032958984375,0.0,0.998779296875,0.0,-0.375,5.625
1563146621.948449,360.0,-0.375,5.625,-0.06,-0.96,9.75,-0.01,0.0,-0.17,0.0,-0.0022222222222222222,0.0022222222222222222,-14.0625,-5.25,-47.25,28,-0.04937744140625,0.0032958984375,0.0,0.998779296875,360.0,-0.375,5.625
1563146621.989524,360.0,-0.375,5.625,-0.06,-0.96,9.75,-0.01,0.0,-0.16,-0.0011111111111111111,0.0033333333333333335,0.0,-14.0625,-5.25,-47.25,28,-0.04937744140625,0.0032958984375,0.0,0.998779296875,360.0,-0.375,5.625
1563146622.027524,360.0,-0.375,5.625,-0.06,-0.96,9.75,0.0,0.02,-0.17,-0.0044444444444444444,0.0022222222222222222,-0.0011111111111111111,-13.75,-5.5625,-46.875,28,-0.04937744140625,0.0032958984375,0.0,0.998779296875,360.0,-0.375,5.625
1563146622.066041,360.0,-0.375,5.625,-0.06,-0.96,9.75,0.0,0.03,-0.19,-0.0011111111111111111,0.0011111111111111111,-0.0011111111111111111,-14.5,-6.0,-46.5625,28,-0.04937744140625,0.0032958984375,0.0,0.998779296875,360.0,-0.375,5.625
1563146622.104348,360.0,-0.375,5.625,-0.06,-0.96,9.75,0.0,0.0,-0.17,-0.0011111111111111111,0.0022222222222222222,0.0,-13.75,-5.5625,-46.5625,28,-0.04937744140625,0.0032958984375,0.0,0.998779296875,360.0,-0.375,5.625
1563146622.146054,360.0,-0.375,5.625,-0.06,-0.96,9.75,0.0,0.02,-0.15,-0.0011111111111111111,-0.0011111111111111111,0.0011111111111111111,-13.75,-5.5625,-46.5625,28,-0.04937744140625,0.0032958984375,0.0,0.998779296875,360.0,-0.375,5.625
1563146622.187636,360.0,-0.375,5.625,-0.06,-0.96,9.75,0.01,0.01,-0.17,0.0,0.0011111111111111111,0.0033333333333333335,-14.0625,-5.25,-46.5625,28,-0.04937744140625,0.0032958984375,0.0,0.998779296875,360.0,-0.375,5.625
1563146622.22685,360.0,-0.375,5.625,-0.06,-0.96,9.75,-0.01,0.01,-0.19,0.0,0.0033333333333333335,-0.0033333333333333335,-13.375,-6.0,-45.375,28,-0.04937744140625,0.0032958984375,0.0,0.998779296875,360.0,-0.375,5.625
1563146622.265396,360.0,-0.375,5.625,-0.06,-0.96,9.75,-0.01,0.02,-0.19,-0.0033333333333333335,0.0011111111111111111,-0.0022222222222222222,-14.875,-5.5625,-46.5625,28,-0.04937744140625,0.0032958984375,0.0,0.998779296875,360.0,-0.375,5.625
1563146622.305206,360.0,-0.375,5.625,-0.06,-0.96,9.75,0.01,0.03,-0.16,-0.0011111111111111111,0.0022222222222222222,0.0022222222222222222,-14.875,-5.25,-46.0625,28,-0.04937744140625,0.0032958984375,0.0,0.998779296875,360.0,-0.375,5.625
1563146622.345399,360.0,-0.375,5.625,-0.06,-0.96,9.75,0.0,0.01,-0.15,-0.0011111111111111111,0.0022222222222222222,0.0011111111111111111,-14.875,-5.25,-46.0625,28,-0.04937744140625,0.0032958984375,0.0,0.998779296875,360.0,-0.375,5.625
1563146622.380112,360.0,-0.375,5.625,-0.06,-0.96,9.75,0.0,0.02,-0.15,0.0,-0.0022222222222222222,0.0,-14.5,-4.875,-46.1875,28,-0.04937744140625,0.0032958984375,0.0,0.998779296875,360.0,-0.375,5.625
1563146622.419674,360.0,-0.375,5.625,-0.06,-0.96,9.75,0.0,0.0,-0.17,0.0,-0.0011111111111111111,0.0011111111111111111,-13.75,-5.5625,-45.75,28,-0.04937744140625,0.0032958984375,0.0,0.998779296875,360.0,-0.375,5.625
1563146622.466085,360.0,-0.375,5.625,-0.06,-0.96,9.75,0.0,-0.01,-0.17,-0.0011111111111111111,0.0011111111111111111,0.0011111111111111111,-13.375,-5.5625,-46.875,28,-0.04937744140625,0.0032958984375,0.0,0.998779296875,360.0,-0.375,5.625
1563146622.506128,360.0,-0.375,5.625,-0.06,-0.96,9.75,0.0,0.01,-0.15,-0.0011111111111111111,-0.0011111111111111111,-0.0011111111111111111,-14.5,-5.5625,-46.5625,28,-0.04937744140625,0.0032958984375,0.0,0.998779296875,360.0,-0.375,5.625
1563146622.550016,360.0,-0.375,5.625,-0.06,-0.96,9.75,0.0,0.01,-0.15,-0.0022222222222222222,0.0,-0.0011111111111111111,-14.5,-5.5625,-46.5625,28,-0.04937744140625,0.0032958984375,0.0,0.998779296875,360.0,-0.375,5.625
1563146622.599028,360.0,-0.375,5.625,-0.06,-0.96,9.75,0.0,0.02,-0.15,-0.0011111111111111111,0.0022222222222222222,-0.0011111111111111111,-14.5,-6.0,-45.375,28,-0.04937744140625,0.0032958984375,0.0,0.998779296875,360.0,-0.375,5.625
1563146622.647071,360.0,-0.375,5.625,-0.06,-0.96,9.75,-0.01,0.02,-0.18,0.0,0.0022222222222222222,0.0011111111111111111,-14.0625,-5.5625,-45.375,28,-0.04937744140625,0.0032958984375,0.0,0.998779296875,360.0,-0.375,5.625
1563146622.692481,360.0,-0.375,5.625,-0.06,-0.96,9.75,0.0,0.0,-0.2,-0.0011111111111111111,0.0,0.0,-14.5,-5.25,-45.375,28,-0.04937744140625,0.0032958984375,0.0,0.998779296875,360.0,-0.375,5.625
1563146622.730023,360.0,-0.375,5.625,-0.06,-0.96,9.75,0.01,0.02,-0.17,-0.0011111111111111111,0.0011111111111111111,-0.0011111111111111111,-14.0625,-6.0,-45.375,28,-0.04937744140625,0.0032958984375,0.0,0.998779296875,360.0,-0.375,5.625
1563146622.768466,360.0,-0.375,5.625,-0.06,-0.96,9.75,0.0,0.01,-0.19,0.0,0.0022222222222222222,0.0011111111111111111,-14.0625,-6.75,-45.0,28,-0.04937744140625,0.0032958984375,0.0,0.998779296875,360.0,-0.375,5.625
1563146622.806912,360.0,-0.375,5.625,-0.06,-0.96,9.75,0.03,0.02,-0.18,-0.0011111111111111111,0.0011111111111111111,0.0,-14.5,-5.5625,-47.25,28,-0.04937744140625,0.0032958984375,0.0,0.998779296875,360.0,-0.375,5.625
1563146622.847105,360.0,-0.375,5.625,-0.06,-0.96,9.75,0.0,0.02,-0.2,0.0022222222222222222,-0.0011111111111111111,0.0011111111111111111,-14.5,-5.5625,-47.25,28,-0.04937744140625,0.0032958984375,0.0,0.998779296875,360.0,-0.375,5.625
1563146622.88222,360.0,-0.375,5.625,-0.06,-0.96,9.75,0.01,0.01,-0.18,0.0,-0.0022222222222222222,0.0,-13.75,-6.375,-47.75,28,-0.04937744140625,0.0032958984375,0.0,0.998779296875,360.0,-0.375,5.625
1563146622.920863,360.0,-0.375,5.625,-0.06,-0.96,9.75,0.0,0.01,-0.21,0.0011111111111111111,-0.0022222222222222222,0.0,-14.875,-5.25,-46.875,28,-0.04937744140625,0.0032958984375,0.0,0.998779296875,360.0,-0.375,5.625
1563146622.959344,360.0,-0.375,5.625,-0.06,-0.96,9.75,0.0,0.02,-0.18,0.0022222222222222222,0.0011111111111111111,0.0011111111111111111,-14.875,-5.25,-46.5625,28,-0.04937744140625,0.0032958984375,0.0,0.998779296875,360.0,-0.375,5.625
1563146622.999094,360.0,-0.375,5.625,-0.06,-0.96,9.75,-0.01,0.01,-0.18,0.0,0.0,0.0,-14.875,-5.25,-46.5625,28,-0.04937744140625,0.0032958984375,0.0,0.998779296875,360.0,-0.375,5.625
1563146623.040422,360.0,-0.375,5.625,-0.06,-0.96,9.75,-0.01,0.02,-0.19,0.0011111111111111111,-0.0011111111111111111,0.0,-14.875,-6.375,-46.875,28,-0.04937744140625,0.0032958984375,0.0,0.998779296875,360.0,-0.375,5.625
1563146623.079538,360.0,-0.375,5.625,-0.06,-0.96,9.75,-0.01,0.02,-0.2,-0.0011111111111111111,-0.0011111111111111111,-0.0011111111111111111,-14.5,-5.5625,-45.75,28,-0.04937744140625,0.0032958984375,0.0,0.998779296875,360.0,-0.375,5.625
1563146623.114132,360.0,-0.375,5.625,-0.06,-0.96,9.75,0.0,0.0,-0.16,0.0011111111111111111,0.0,0.0011111111111111111,-14.0625,-4.875,-46.875,28,-0.04937744140625,0.0032958984375,0.0,0.998779296875,360.0,-0.375,5.625
1563146623.153989,360.0,-0.375,5.625,-0.06,-0.96,9.75,0.0,0.01,-0.16,-0.0011111111111111111,-0.0011111111111111111,0.0,-13.75,-5.5625,-47.25,28,-0.04937744140625,0.0032958984375,0.0,0.998779296875,360.0,-0.375,5.625
1563146623.194271,360.0,-0.375,5.625,-0.06,-0.96,9.75,0.0,0.02,-0.18,-0.0011111111111111111,0.0,-0.0011111111111111111,-13.75,-5.5625,-47.25,28,-0.04937744140625,0.0032958984375,0.0,0.998779296875,360.0,-0.375,5.625
1563146623.231675,360.0,-0.375,5.625,-0.06,-0.96,9.75,0.0,0.0,-0.17,0.0022222222222222222,0.0,-0.0011111111111111111,-14.5,-6.0,-46.5625,28,-0.04937744140625,0.0032958984375,0.0,0.998779296875,360.0,-0.375,5.625
1563146623.27085,360.0,-0.375,5.625,-0.06,-0.96,9.75,0.0,0.0,-0.18,0.0011111111111111111,-0.0011111111111111111,0.0,-14.5,-5.25,-46.5625,28,-0.04937744140625,0.0032958984375,0.0,0.998779296875,360.0,-0.375,5.625
1563146623.304574,360.0,-0.375,5.625,-0.06,-0.96,9.75,0.0,0.02,-0.18,-0.0011111111111111111,-0.0022222222222222222,0.0011111111111111111,-15.25,-6.0,-46.875,28,-0.04937744140625,0.0032958984375,0.0,0.998779296875,360.0,-0.375,5.625
1563146623.344981,360.0,-0.375,5.625,-0.06,-0.96,9.75,0.01,0.0,-0.19,0.0022222222222222222,-0.0011111111111111111,0.0,-15.25,-6.0,-46.875,28,-0.04937744140625,0.0032958984375,0.0,0.998779296875,360.0,-0.375,5.625
1563146623.382196,360.0,-0.375,5.625,-0.06,-0.96,9.75,0.0,0.02,-0.16,-0.0033333333333333335,0.0011111111111111111,0.0,-13.75,-5.25,-45.375,28,-0.04937744140625,0.0032958984375,0.0,0.998779296875,360.0,-0.375,5.625
1563146623.421109,360.0,-0.375,5.625,-0.06,-0.96,9.75,0.0,0.02,-0.19,0.0,0.0011111111111111111,0.0011111111111111111,-14.0625,-5.25,-46.1875,28,-0.04937744140625,0.0032958984375,0.0,0.998779296875,360.0,-0.375,5.625
1563146623.459671,360.0,-0.375,5.625,-0.06,-0.96,9.75,0.0,0.01,-0.16,0.0,0.0,0.0,-14.875,-5.5625,-46.5625,28,-0.04937744140625,0.0032958984375,0.0,0.998779296875,360.0,-0.375,5.625
1563146623.502191,360.0,-0.375,5.625,-0.06,-0.96,9.75,-0.01,0.0,-0.16,0.0,-0.0022222222222222222,0.0033333333333333335,-14.875,-5.5625,-46.5625,28,-0.04937744140625,0.0032958984375,0.0,0.998779296875,360.0,-0.375,5.625
1563146623.544267,360.0,-0.375,5.625,-0.06,-0.96,9.75,0.0,0.02,-0.19,0.0,0.0011111111111111111,0.0,-14.5,-5.25,-45.375,28,-0.04937744140625,0.0032958984375,0.0,0.998779296875,360.0,-0.375,5.625
1563146623.583849,360.0,-0.375,5.625,-0.06,-0.96,9.75,0.0,0.0,-0.15,0.0011111111111111111,-0.0011111111111111111,0.0,-15.25,-5.5625,-46.5625,28,-0.04937744140625,0.0032958984375,0.0,0.998779296875,360.0,-0.375,5.625
1563146623.624256,360.0,-0.375,5.625,-0.06,-0.96,9.75,0.02,0.02,-0.18,0.0,0.0011111111111111111,-0.0011111111111111111,-14.875,-5.25,-45.0,28,-0.04937744140625,0.0032958984375,0.0,0.998779296875,360.0,-0.375,5.625
1563146623.664265,360.0,-0.375,5.625,-0.06,-0.96,9.75,0.01,0.02,-0.14,0.0022222222222222222,-0.0022222222222222222,0.0,-14.5,-6.0,-46.1875,28,-0.04937744140625,0.0032958984375,0.0,0.998779296875,360.0,-0.375,5.625
1563146623.710456,360.0,-0.375,5.625,-0.06,-0.96,9.75,0.0,0.01,-0.18,0.0011111111111111111,0.0022222222222222222,0.0011111111111111111,-13.75,-6.375,-46.5625,28,-0.04937744140625,0.0032958984375,0.0,0.998779296875,360.0,-0.375,5.625
1563146623.75266,360.0,-0.375,5.625,-0.06,-0.96,9.75,0.0,0.03,-0.18,-0.0022222222222222222,0.0033333333333333335,-0.0022222222222222222,-13.75,-6.375,-46.5625,28,-0.04937744140625,0.0032958984375,0.0,0.998779296875,360.0,-0.375,5.625
1563146623.793865,360.0,-0.375,5.625,-0.06,-0.96,9.75,0.0,0.01,-0.17,0.0011111111111111111,0.0,0.0,-14.5,-4.875,-45.375,28,-0.04937744140625,0.0032958984375,0.0,0.998779296875,360.0,-0.375,5.625
1563146623.833062,360.0,-0.375,5.625,-0.06,-0.96,9.75,0.0,0.0,-0.22,-0.0011111111111111111,0.0022222222222222222,0.0011111111111111111,-14.5,-5.25,-45.75,28,-0.04937744140625,0.0032958984375,0.0,0.998779296875,360.0,-0.375,5.625
1563146623.873037,360.0,-0.375,5.625,-0.06,-0.96,9.75,0.0,0.03,-0.17,0.0011111111111111111,0.0011111111111111111,0.0,-14.0625,-5.25,-46.5625,28,-0.04937744140625,0.0032958984375,0.0,0.998779296875,360.0,-0.375,5.625
1563146623.914792,360.0,-0.375,5.625,-0.06,-0.96,9.75,0.01,0.0,-0.17,0.0011111111111111111,0.0022222222222222222,-0.0011111111111111111,-14.0625,-5.25,-46.1875,28,-0.04937744140625,0.0032958984375,0.0,0.998779296875,360.0,-0.375,5.625
1563146623.95732,360.0,-0.375,5.625,-0.06,-0.96,9.75,0.0,0.03,-0.15,-0.0011111111111111111,-0.0033333333333333335,0.0011111111111111111,-14.875,-6.75,-45.75,28,-0.04937744140625,0.0032958984375,0.0,0.998779296875,360.0,-0.375,5.625
1563146624.001846,360.0,-0.375,5.625,-0.06,-0.96,9.75,0.0,0.01,-0.16,0.0022222222222222222,0.0011111111111111111,-0.0011111111111111111,-14.875,-6.75,-45.75,28,-0.04937744140625,0.0032958984375,0.0,0.998779296875,360.0,-0.375,5.625
1563146624.04479,360.0,-0.375,5.625,-0.06,-0.96,9.75,0.0,0.02,-0.19,0.0011111111111111111,0.0,0.0011111111111111111,-15.25,-5.5625,-46.1875,28,-0.04937744140625,0.0032958984375,0.0,0.998779296875,360.0,-0.375,5.625
1563146624.083978,360.0,-0.375,5.625,-0.06,-0.96,9.75,0.0,0.02,-0.16,0.0,0.0022222222222222222,-0.0011111111111111111,-15.5625,-5.5625,-45.75,28,-0.04937744140625,0.0032958984375,0.0,0.998779296875,360.0,-0.375,5.625
1563146624.122239,360.0,-0.375,5.625,-0.06,-0.96,9.75,0.0,0.02,-0.15,0.0,0.0011111111111111111,0.0,-13.75,-5.5625,-46.1875,28,-0.04937744140625,0.0032958984375,0.0,0.998779296875,360.0,-0.375,5.625
1563146624.162312,360.0,-0.375,5.625,-0.06,-0.96,9.75,0.01,0.0,-0.18,-0.0011111111111111111,-0.0011111111111111111,-0.0011111111111111111,-14.875,-6.0,-47.0,28,-0.04937744140625,0.0032958984375,0.0,0.998779296875,360.0,-0.375,5.625
1563146624.204292,360.0,-0.375,5.625,-0.06,-0.96,9.75,-0.01,0.01,-0.17,-0.0011111111111111111,0.0022222222222222222,-0.0011111111111111111,-14.875,-6.0,-47.0,28,-0.04937744140625,0.0032958984375,0.0,0.998779296875,360.0,-0.375,5.625
1563146624.247176,360.0,-0.375,5.625,-0.06,-0.96,9.75,0.0,0.0,-0.19,0.0,-0.0011111111111111111,0.0011111111111111111,-14.875,-6.75,-46.1875,28,-0.04937744140625,0.0032958984375,0.0,0.998779296875,360.0,-0.375,5.625
1563146624.286423,360.0,-0.375,5.625,-0.06,-0.96,9.75,0.0,0.01,-0.21,0.0022222222222222222,0.0022222222222222222,-0.0011111111111111111,-14.0625,-6.0,-45.375,28,-0.04937744140625,0.0032958984375,0.0,0.998779296875,360.0,-0.375,5.625
1563146624.324992,360.0,-0.375,5.625,-0.06,-0.96,9.75,0.0,0.03,-0.16,-0.0011111111111111111,-0.0033333333333333335,-0.0022222222222222222,-14.5,-5.5625,-46.1875,28,-0.04937744140625,0.0032958984375,0.0,0.998779296875,360.0,-0.375,5.625
1563146624.365065,360.0,-0.375,5.625,-0.06,-0.96,9.75,0.0,0.01,-0.15,0.0,0.0,0.0011111111111111111,-14.5,-5.5625,-45.75,28,-0.04937744140625,0.0032958984375,0.0,0.998779296875,360.0,-0.375,5.625
1563146624.405245,360.0,-0.375,5.625,-0.06,-0.96,9.75,-0.01,0.03,-0.16,0.0011111111111111111,0.0,-0.0022222222222222222,-14.5,-5.5625,-45.75,28,-0.04937744140625,0.0032958984375,0.0,0.998779296875,360.0,-0.375,5.625
1563146624.447826,360.0,-0.375,5.625,-0.06,-0.96,9.75,0.01,0.02,-0.17,0.0,-0.0022222222222222222,0.0,-14.875,-6.0,-45.375,28,-0.04937744140625,0.0032958984375,0.0,0.998779296875,360.0,-0.375,5.625
1563146624.487178,360.0,-0.375,5.625,-0.06,-0.96,9.75,0.0,0.0,-0.2,0.0022222222222222222,-0.0011111111111111111,-0.0011111111111111111,-14.5,-5.5625,-46.1875,28,-0.04937744140625,0.0032958984375,0.0,0.998779296875,360.0,-0.375,5.625
1563146624.525611,360.0,-0.375,5.625,-0.06,-0.96,9.75,0.0,0.0,-0.19,-0.0011111111111111111,-0.0033333333333333335,0.0,-14.875,-6.75,-46.1875,28,-0.04937744140625,0.0032958984375,0.0,0.998779296875,360.0,-0.375,5.625
1563146624.563958,360.0,-0.375,5.625,-0.06,-0.96,9.75,0.0,0.01,-0.16,0.0,-0.0022222222222222222,0.0,-14.5,-6.0,-46.5625,28,-0.04937744140625,0.0032958984375,0.0,0.998779296875,360.0,-0.375,5.625
1563146624.605836,360.0,-0.375,5.625,-0.06,-0.96,9.75,0.01,0.01,-0.16,0.0011111111111111111,0.0,0.0022222222222222222,-14.5,-6.0,-46.5625,28,-0.04937744140625,0.0032958984375,0.0,0.998779296875,360.0,-0.375,5.625
1563146624.648652,360.0,-0.375,5.625,-0.06,-0.96,9.75,0.0,0.0,-0.16,0.0022222222222222222,0.0011111111111111111,0.0,-15.25,-6.375,-45.75,28,-0.04937744140625,0.0032958984375,0.0,0.998779296875,360.0,-0.375,5.625
1563146624.688042,360.0,-0.375,5.625,-0.06,-0.96,9.75,0.0,0.01,-0.19,0.0011111111111111111,-0.0022222222222222222,0.0,-14.5,-5.25,-47.0,28,-0.04937744140625,0.0032958984375,0.0,0.998779296875,360.0,-0.375,5.625
1563146624.726245,360.0,-0.375,5.625,-0.06,-0.96,9.75,0.0,0.0,-0.2,0.0011111111111111111,-0.0011111111111111111,0.0,-14.0625,-4.875,-45.75,28,-0.04937744140625,0.0032958984375,0.0,0.998779296875,360.0,-0.375,5.625
1563146624.764715,360.0,-0.375,5.625,-0.06,-0.96,9.75,0.0,0.01,-0.16,0.0011111111111111111,-0.0011111111111111111,0.0022222222222222222,-14.0625,-5.5625,-46.5625,28,-0.04937744140625,0.0032958984375,0.0,0.998779296875,360.0,-0.375,5.625
1563146624.80835,360.0,-0.375,5.625,-0.06,-0.96,9.75,0.0,0.0,-0.18,0.0011111111111111111,0.0044444444444444444,0.0,-14.0625,-5.5625,-46.5625,28,-0.04937744140625,0.0032958984375,0.0,0.998779296875,360.0,-0.375,5.625
1563146624.849305,360.0,-0.375,5.625,-0.06,-0.96,9.75,0.0,0.0,-0.16,0.0,0.0,0.0011111111111111111,-14.0625,-6.375,-46.5625,28,-0.04937744140625,0.0032958984375,0.0,0.998779296875,360.0,-0.375,5.625
1563146624.888751,360.0,-0.375,5.625,-0.06,-0.96,9.75,0.01,0.01,-0.15,0.0,0.0,-0.0011111111111111111,-13.75,-6.0,-45.75,28,-0.04937744140625,0.0032958984375,0.0,0.998779296875,360.0,-0.375,5.625
1563146624.927018,360.0,-0.375,5.625,-0.06,-0.96,9.75,0.01,0.0,-0.17,0.0,0.0022222222222222222,0.0011111111111111111,-14.5,-5.5625,-46.5625,28,-0.04937744140625,0.0032958984375,0.0,0.998779296875,360.0,-0.375,5.625
1563146624.965416,360.0,-0.375,5.625,-0.06,-0.96,9.75,-0.01,0.02,-0.14,0.0022222222222222222,0.0,-0.0011111111111111111,-14.875,-6.0,-46.5625,28,-0.04937744140625,0.0032958984375,0.0,0.998779296875,360.0,-0.375,5.625
1563146625.007298,360.0,-0.375,5.625,-0.06,-0.96,9.75,0.0,0.0,-0.17,-0.0011111111111111111,-0.0011111111111111111,0.0,-14.875,-6.0,-46.5625,28,-0.04937744140625,0.0032958984375,0.0,0.998779296875,360.0,-0.375,5.625
1563146625.048423,360.0,-0.375,5.625,-0.06,-0.96,9.75,-0.01,0.0,-0.16,0.0,0.0,0.0,-14.875,-6.0,-45.75,28,-0.04937744140625,0.0032958984375,0.0,0.998779296875,360.0,-0.375,5.625
1563146625.087746,360.0,-0.375,5.625,-0.06,-0.96,9.75,0.01,0.0,-0.17,-0.0022222222222222222,0.0011111111111111111,-0.0022222222222222222,-14.0625,-4.875,-47.0,28,-0.04937744140625,0.0032958984375,0.0,0.998779296875,360.0,-0.375,5.625
1563146625.126179,360.0,-0.375,5.625,-0.06,-0.96,9.75,0.0,0.01,-0.18,0.0,-0.0011111111111111111,0.0,-13.375,-6.0,-45.75,28,-0.04937744140625,0.0032958984375,0.0,0.998779296875,360.0,-0.375,5.625
1563146625.166317,360.0,-0.375,5.625,-0.06,-0.96,9.75,0.0,0.02,-0.15,0.0,0.0,0.0,-14.0625,-6.0,-47.375,28,-0.04937744140625,0.0032958984375,0.0,0.998779296875,360.0,-0.375,5.625
1563146625.208126,360.0,-0.375,5.625,-0.06,-0.96,9.75,0.0,0.0,-0.19,0.0022222222222222222,0.0011111111111111111,-0.0022222222222222222,-14.0625,-6.0,-47.375,28,-0.04937744140625,0.0032958984375,0.0,0.998779296875,360.0,-0.375,5.625
1563146625.24912,360.0,-0.375,5.625,-0.06,-0.96,9.75,0.0,0.01,-0.2,0.0,0.0022222222222222222,0.0011111111111111111,-13.375,-5.5625,-46.5625,28,-0.04937744140625,0.0032958984375,0.0,0.998779296875,360.0,-0.375,5.625
1563146625.288515,360.0,-0.375,5.625,-0.06,-0.96,9.75,0.0,0.01,-0.18,0.0011111111111111111,0.0,0.0,-14.0625,-5.5625,-45.75,28,-0.04937744140625,0.0032958984375,0.0,0.998779296875,360.0,-0.375,5.625
1563146625.326988,360.0,-0.375,5.625,-0.06,-0.96,9.75,0.0,0.01,-0.19,0.0,0.0022222222222222222,0.0,-13.75,-4.875,-47.375,28,-0.04937744140625,0.0032958984375,0.0,0.998779296875,360.0,-0.375,5.625
1563146625.367112,360.0,-0.375,5.625,-0.06,-0.96,9.75,0.0,0.01,-0.16,0.0011111111111111111,-0.0022222222222222222,0.0011111111111111111,-14.875,-5.25,-45.75,28,-0.04937744140625,0.0032958984375,0.0,0.998779296875,360.0,-0.375,5.625
1563146625.40916,360.0,-0.375,5.625,-0.06,-0.96,9.75,0.0,0.02,-0.16,0.0011111111111111111,-0.0011111111111111111,0.0011111111111111111,-14.875,-5.25,-45.75,28,-0.04937744140625,0.0032958984375,0.0,0.998779296875,360.0,-0.375,5.625
1563146625.451907,360.0,-0.375,5.625,-0.06,-0.96,9.75,0.0,0.02,-0.17,0.0,0.0011111111111111111,0.0011111111111111111,-14.0625,-6.0,-47.0,28,-0.04937744140625,0.0032958984375,0.0,0.998779296875,360.0,-0.375,5.625
1563146625.491183,360.0,-0.375,5.625,-0.06,-0.96,9.75,-0.02,0.01,-0.17,0.0,0.0011111111111111111,0.0022222222222222222,-14.875,-6.0,-45.375,28,-0.04937744140625,0.0032958984375,0.0,0.998779296875,360.0,-0.375,5.625
1563146625.529545,360.0,-0.375,5.625,-0.06,-0.96,9.75,0.02,0.0,-0.19,0.0011111111111111111,0.0,0.0011111111111111111,-13.75,-6.0,-46.5625,28,-0.04937744140625,0.0032958984375,0.0,0.998779296875,360.0,-0.375,5.625
1563146625.567921,360.0,-0.375,5.625,-0.06,-0.96,9.75,0.0,0.02,-0.14,0.0,0.0011111111111111111,-0.0022222222222222222,-14.5,-5.5625,-46.1875,28,-0.04937744140625,0.0032958984375,0.0,0.998779296875,360.0,-0.375,5.625
1563146625.609828,360.0,-0.375,5.625,-0.06,-0.96,9.75,0.0,0.0,-0.14,0.0011111111111111111,-0.0033333333333333335,0.0,-14.5,-5.5625,-46.1875,28,-0.04937744140625,0.0032958984375,0.0,0.998779296875,360.0,-0.375,5.625
1563146625.650703,360.0,-0.375,5.625,-0.06,-0.96,9.75,0.0,0.01,-0.19,0.0,0.0,0.0033333333333333335,-13.375,-5.5625,-45.75,28,-0.04937744140625,0.0032958984375,0.0,0.998779296875,360.0,-0.375,5.625
1563146625.690171,360.0,-0.375,5.625,-0.06,-0.96,9.75,0.0,0.03,-0.18,-0.0011111111111111111,-0.0022222222222222222,0.0,-14.5,-6.375,-46.5625,28,-0.04937744140625,0.0032958984375,0.0,0.998779296875,360.0,-0.375,5.625
1563146625.728669,360.0,-0.375,5.625,-0.06,-0.96,9.75,0.0,0.0,-0.16,0.0011111111111111111,0.0011111111111111111,-0.0011111111111111111,-13.75,-5.25,-46.1875,28,-0.04937744140625,0.0032958984375,0.0,0.998779296875,360.0,-0.375,5.625
1563146625.768664,360.0,-0.375,5.625,-0.06,-0.96,9.75,0.0,0.01,-0.15,0.0011111111111111111,-0.0022222222222222222,0.005555555555555556,-14.0625,-6.0,-46.5625,28,-0.04937744140625,0.0032958984375,0.0,0.998779296875,360.0,-0.375,5.625
1563146625.812349,360.0,-0.375,5.625,-0.06,-0.96,9.75,0.0,0.02,-0.16,0.0011111111111111111,-0.0022222222222222222,0.0,-14.0625,-6.0,-46.5625,28,-0.04937744140625,0.0032958984375,0.0,0.998779296875,360.0,-0.375,5.625
1563146625.853374,360.0,-0.375,5.625,-0.06,-0.96,9.75,0.01,0.01,-0.16,0.0,0.0,0.0,-14.0625,-5.5625,-47.375,28,-0.04937744140625,0.0032958984375,0.0,0.998779296875,360.0,-0.375,5.625
1563146625.892806,360.0,-0.375,5.625,-0.06,-0.96,9.75,0.0,0.01,-0.18,0.0011111111111111111,0.0011111111111111111,-0.0011111111111111111,-13.375,-4.875,-45.375,28,-0.04937744140625,0.0032958984375,0.0,0.998779296875,360.0,-0.375,5.625
1563146625.931047,360.0,-0.375,5.625,-0.06,-0.96,9.75,0.01,0.0,-0.18,0.0011111111111111111,0.0,-0.0011111111111111111,-14.875,-6.0,-46.5625,28,-0.04937744140625,0.0032958984375,0.0,0.998779296875,360.0,-0.375,5.625
1563146625.969521,360.0,-0.375,5.625,-0.06,-0.96,9.75,-0.02,0.01,-0.17,0.0011111111111111111,0.0,0.0,-15.25,-5.5625,-47.75,28,-0.04937744140625,0.0032958984375,0.0,0.998779296875,360.0,-0.375,5.625
1563146626.01169,360.0,-0.375,5.625,-0.06,-0.96,9.75,0.0,0.01,-0.15,0.0,0.0011111111111111111,-0.0011111111111111111,-15.25,-5.5625,-47.75,28,-0.04937744140625,0.0032958984375,0.0,0.998779296875,360.0,-0.375,5.625
1563146626.054408,360.0,-0.375,5.625,-0.06,-0.96,9.75,0.0,0.01,-0.18,0.0011111111111111111,-0.0011111111111111111,-0.0033333333333333335,-14.875,-5.25,-45.875,28,-0.04937744140625,0.0032958984375,0.0,0.998779296875,360.0,-0.375,5.625
1563146626.093493,360.0,-0.375,5.625,-0.06,-0.96,9.75,0.0,0.01,-0.18,0.0011111111111111111,0.0011111111111111111,-0.0011111111111111111,-14.5,-5.25,-45.0625,28,-0.04937744140625,0.0032958984375,0.0,0.998779296875,360.0,-0.375,5.625
1563146626.131817,360.0,-0.375,5.625,-0.06,-0.96,9.75,-0.01,0.02,-0.18,-0.0022222222222222222,0.0,-0.0022222222222222222,-14.5,-6.0,-46.25,28,-0.04937744140625,0.0032958984375,0.0,0.998779296875,360.0,-0.375,5.625
1563146626.170273,360.0,-0.375,5.625,-0.06,-0.96,9.75,0.0,0.04,-0.16,0.0022222222222222222,-0.0011111111111111111,-0.0022222222222222222,-14.0625,-6.375,-46.25,28,-0.04937744140625,0.0032958984375,0.0,0.998779296875,360.0,-0.375,5.625
1563146626.213978,360.0,-0.375,5.625,-0.06,-0.96,9.75,-0.01,0.02,-0.17,-0.0011111111111111111,0.0,-0.0033333333333333335,-14.0625,-6.375,-46.25,28,-0.04937744140625,0.0032958984375,0.0,0.998779296875,360.0,-0.375,5.625
1563146626.260651,360.0,-0.375,5.625,-0.06,-0.96,9.75,0.01,0.02,-0.15,0.0011111111111111111,-0.0011111111111111111,-0.0022222222222222222,-14.5,-6.0,-45.375,28,-0.04937744140625,0.0032958984375,0.0,0.998779296875,360.0,-0.375,5.625
1563146626.303761,360.0,-0.375,5.625,-0.06,-0.96,9.75,0.0,0.0,-0.14,-0.0022222222222222222,-0.0022222222222222222,0.0022222222222222222,-14.0625,-5.5625,-46.5625,28,-0.04937744140625,0.0032958984375,0.0,0.998779296875,360.0,-0.375,5.625
1563146626.342826,360.0,-0.375,5.625,-0.06,-0.96,9.75,0.0,0.02,-0.17,0.0,0.0022222222222222222,0.0011111111111111111,-14.5,-5.5625,-46.25,28,-0.04937744140625,0.0032958984375,0.0,0.998779296875,360.0,-0.375,5.625
1563146626.381011,360.0,-0.375,5.625,-0.06,-0.96,9.75,0.01,0.01,-0.17,0.0011111111111111111,-0.0011111111111111111,0.0022222222222222222,-13.75,-4.875,-45.75,28,-0.04937744140625,0.0032958984375,0.0,0.998779296875,360.0,-0.375,5.625
1563146626.421222,360.0,-0.375,5.625,-0.06,-0.96,9.75,-0.01,0.0,-0.18,0.0,0.0011111111111111111,0.0,-14.875,-5.25,-47.375,28,-0.04937744140625,0.0032958984375,0.0,0.998779296875,360.0,-0.375,5.625
1563146626.463334,360.0,-0.375,5.625,-0.06,-0.96,9.75,0.0,0.0,-0.2,0.0,-0.0033333333333333335,-0.0011111111111111111,-14.875,-5.25,-47.375,28,-0.04937744140625,0.0032958984375,0.0,0.998779296875,360.0,-0.375,5.625
1563146626.504065,360.0,-0.375,5.625,-0.06,-0.96,9.75,0.01,0.0,-0.18,0.0,0.0011111111111111111,0.0011111111111111111,-14.5,-6.0,-45.875,28,-0.04937744140625,0.0032958984375,0.0,0.998779296875,360.0,-0.375,5.625
1563146626.543574,360.0,-0.375,5.625,-0.06,-0.96,9.75,-0.01,0.01,-0.18,0.0,0.0,0.0,-14.5,-6.0,-46.5625,28,-0.04937744140625,0.0032958984375,0.0,0.998779296875,360.0,-0.375,5.625
1563146626.581923,360.0,-0.375,5.625,-0.06,-0.96,9.75,0.0,0.02,-0.16,-0.0011111111111111111,-0.0011111111111111111,0.0,-13.375,-5.25,-45.75,28,-0.04937744140625,0.0032958984375,0.0,0.998779296875,360.0,-0.375,5.625
1563146626.621915,360.0,-0.375,5.625,-0.06,-0.96,9.75,0.0,0.0,-0.17,0.0,-0.0011111111111111111,0.0022222222222222222,-14.5,-6.0,-46.5625,28,-0.04937744140625,0.0032958984375,0.0,0.998779296875,360.0,-0.375,5.625
1563146626.664365,360.0,-0.375,5.625,-0.06,-0.96,9.75,0.0,0.01,-0.14,0.0011111111111111111,-0.0011111111111111111,0.0011111111111111111,-14.5,-6.0,-46.5625,28,-0.04937744140625,0.0032958984375,0.0,0.998779296875,360.0,-0.375,5.625
1563146626.706749,360.0,-0.375,5.625,-0.06,-0.96,9.75,0.0,0.02,-0.15,0.0,-0.0033333333333333335,0.0011111111111111111,-14.5,-5.5625,-47.0,28,-0.04937744140625,0.0032958984375,0.0,0.998779296875,360.0,-0.375,5.625
1563146626.746217,360.0,-0.375,5.625,-0.06,-0.96,9.75,-0.01,0.01,-0.17,0.0,0.0011111111111111111,0.0,-13.75,-5.25,-47.0,28,-0.04937744140625,0.0032958984375,0.0,0.998779296875,360.0,-0.375,5.625
1563146626.784527,360.0,-0.375,5.625,-0.06,-0.96,9.75,0.0,0.01,-0.2,0.0,-0.0011111111111111111,0.0011111111111111111,-14.5,-5.25,-45.375,28,-0.04937744140625,0.0032958984375,0.0,0.998779296875,360.0,-0.375,5.625
1563146626.82272,360.0,-0.375,5.625,-0.06,-0.96,9.75,0.0,0.02,-0.15,-0.0011111111111111111,-0.0011111111111111111,0.0022222222222222222,-14.0625,-6.0,-46.1875,28,-0.04937744140625,0.0032958984375,0.0,0.998779296875,360.0,-0.375,5.625
1563146626.864764,360.0,-0.375,5.625,-0.06,-0.96,9.75,0.0,0.01,-0.15,0.0011111111111111111,-0.0011111111111111111,-0.0033333333333333335,-14.0625,-6.0,-46.1875,28,-0.04937744140625,0.0032958984375,0.0,0.998779296875,360.0,-0.375,5.625
1563146626.905705,360.0,-0.375,5.625,-0.06,-0.96,9.75,0.02,0.02,-0.17,0.0,-0.0033333333333333335,-0.0011111111111111111,-14.875,-6.0,-46.25,28,-0.04937744140625,0.0032958984375,0.0,0.998779296875,360.0,-0.375,5.625
1563146626.945283,360.0,-0.375,5.625,-0.06,-0.96,9.75,0.0,0.01,-0.19,-0.0011111111111111111,0.0022222222222222222,-0.0022222222222222222,-14.875,-6.375,-45.375,28,-0.04937744140625,0.0032958984375,0.0,0.998779296875,360.0,-0.375,5.625
1563146626.983459,360.0,-0.375,5.625,-0.06,-0.96,9.75,-0.01,0.02,-0.18,0.0,-0.0011111111111111111,-0.0022222222222222222,-14.5,-4.875,-46.25,28,-0.04937744140625,0.0032958984375,0.0,0.998779296875,360.0,-0.375,5.625
1563146627.023565,360.0,-0.375,5.625,-0.06,-0.96,9.75,0.0,0.01,-0.17,0.0,-0.0033333333333333335,0.0,-14.0625,-6.0,-46.25,28,-0.04937744140625,0.0032958984375,0.0,0.998779296875,360.0,-0.375,5.625
1563146627.06751,360.0,-0.375,5.625,-0.06,-0.96,9.75,-0.01,0.02,-0.18,0.0011111111111111111,0.0,0.0011111111111111111,-14.0625,-6.0,-46.25,28,-0.04937744140625,0.0032958984375,0.0,0.998779296875,360.0,-0.375,5.625
1563146627.113956,360.0,-0.375,5.625,-0.06,-0.96,9.75,0.01,0.01,-0.17,0.0011111111111111111,-0.0011111111111111111,-0.0033333333333333335,-14.0625,-5.25,-45.75,28,-0.04937744140625,0.0032958984375,0.0,0.998779296875,360.0,-0.375,5.625
1563146627.156703,360.0,-0.375,5.625,-0.06,-0.96,9.75,0.0,0.02,-0.16,0.0011111111111111111,0.0022222222222222222,-0.0011111111111111111,-13.75,-5.5625,-45.875,28,-0.04937744140625,0.0032958984375,0.0,0.998779296875,360.0,-0.375,5.625
1563146627.196102,360.0,-0.375,5.625,-0.06,-0.96,9.75,0.0,0.02,-0.14,-0.0011111111111111111,0.0011111111111111111,-0.0011111111111111111,-14.5,-5.25,-45.75,28,-0.04937744140625,0.0032958984375,0.0,0.998779296875,360.0,-0.375,5.625
1563146627.234484,360.0,-0.375,5.625,-0.06,-0.96,9.75,0.0,0.0,-0.14,-0.0011111111111111111,0.0,-0.0011111111111111111,-15.5625,-6.0,-47.0,28,-0.04937744140625,0.0032958984375,0.0,0.998779296875,360.0,-0.375,5.625
1563146627.274845,360.0,-0.375,5.625,-0.06,-0.96,9.75,-0.01,0.01,-0.16,0.0,-0.0022222222222222222,-0.0011111111111111111,-14.5,-5.5625,-45.875,28,-0.04937744140625,0.0032958984375,0.0,0.998779296875,360.0,-0.375,5.625
1563146627.318408,360.0,-0.375,5.625,-0.06,-0.96,9.75,0.0,0.01,-0.2,0.0011111111111111111,-0.0011111111111111111,-0.0022222222222222222,-14.5,-5.5625,-45.875,28,-0.04937744140625,0.0032958984375,0.0,0.998779296875,360.0,-0.375,5.625
1563146627.359235,360.0,-0.375,5.625,-0.06,-0.96,9.75,-0.01,0.01,-0.15,0.0022222222222222222,-0.0022222222222222222,0.0011111111111111111,-14.875,-5.25,-46.5625,28,-0.04937744140625,0.0032958984375,0.0,0.998779296875,360.0,-0.375,5.625
1563146627.398676,360.0,-0.375,5.625,-0.06,-0.96,9.75,0.0,0.02,-0.13,0.0011111111111111111,-0.0022222222222222222,0.0,-14.875,-4.875,-45.875,28,-0.04937744140625,0.0032958984375,0.0,0.998779296875,360.0,-0.375,5.625
1563146627.437219,360.0,-0.375,5.625,-0.06,-0.96,9.75,0.0,0.01,-0.18,0.0,-0.0011111111111111111,0.0011111111111111111,-14.0625,-5.25,-46.25,28,-0.04937744140625,0.0032958984375,0.0,0.998779296875,360.0,-0.375,5.625
1563146627.475616,360.0,-0.375,5.625,-0.06,-0.96,9.75,0.0,0.02,-0.14,0.0,0.0,-0.0011111111111111111,-14.875,-5.25,-46.5625,28,-0.04937744140625,0.0032958984375,0.0,0.998779296875,360.0,-0.375,5.625
1563146627.517635,360.0,-0.375,5.625,-0.06,-0.96,9.75,0.0,0.0,-0.15,-0.0022222222222222222,-0.0011111111111111111,0.0022222222222222222,-14.875,-5.25,-46.5625,28,-0.04937744140625,0.0032958984375,0.0,0.998779296875,360.0,-0.375,5.625
1563146627.56002,360.0,-0.375,5.625,-0.06,-0.96,9.75,0.0,0.01,-0.17,0.0,-0.0011111111111111111,0.0,-13.75,-5.25,-45.375,28,-0.04937744140625,0.0032958984375,0.0,0.998779296875,360.0,-0.375,5.625
1563146627.599456,360.0,-0.375,5.625,-0.06,-0.96,9.75,0.01,0.01,-0.16,0.0,0.0011111111111111111,0.0011111111111111111,-14.0625,-5.5625,-46.1875,28,-0.04937744140625,0.0032958984375,0.0,0.998779296875,360.0,-0.375,5.625
1563146627.637941,360.0,-0.375,5.625,-0.06,-0.96,9.75,0.0,0.02,-0.19,0.0011111111111111111,0.0,0.0011111111111111111,-14.0625,-4.875,-45.0625,28,-0.04937744140625,0.0032958984375,0.0,0.998779296875,360.0,-0.375,5.625
1563146627.678086,360.0,-0.375,5.625,-0.06,-0.96,9.75,0.01,0.0,-0.16,0.0011111111111111111,0.0011111111111111111,0.0011111111111111111,-14.875,-6.0,-46.5625,28,-0.04937744140625,0.0032958984375,0.0,0.998779296875,360.0,-0.375,5.625
1563146627.722098,360.0,-0.375,5.625,-0.06,-0.96,9.75,0.0,0.0,-0.18,0.0,0.0,0.0011111111111111111,-14.5,-5.5625,-46.25,28,-0.04937744140625,0.0032958984375,0.0,0.998779296875,360.0,-0.375,5.625
1563146627.766544,360.0,-0.375,5.625,-0.06,-0.96,9.75,0.0,0.0,-0.18,0.0011111111111111111,0.0,-0.0011111111111111111,-14.5,-5.5625,-46.25,28,-0.04937744140625,0.0032958984375,0.0,0.998779296875,360.0,-0.375,5.625
1563146627.809697,360.0,-0.375,5.625,-0.06,-0.96,9.75,-0.01,0.01,-0.19,0.0011111111111111111,0.0011111111111111111,0.0,-13.75,-6.375,-47.0,28,-0.04937744140625,0.0032958984375,0.0,0.998779296875,360.0,-0.375,5.625
1563146627.848894,360.0,-0.375,5.625,-0.06,-0.96,9.75,0.0,0.02,-0.17,-0.0011111111111111111,0.0,0.0022222222222222222,-13.75,-6.0,-45.375,28,-0.04937744140625,0.0032958984375,0.0,0.998779296875,360.0,-0.375,5.625
1563146627.888768,360.0,-0.375,5.625,-0.06,-0.96,9.75,0.0,0.01,-0.17,0.0011111111111111111,0.0,0.0,-15.25,-5.25,-45.375,28,-0.04937744140625,0.0032958984375,0.0,0.998779296875,360.0,-0.375,5.625
1563146627.927086,360.0,-0.375,5.625,-0.06,-0.96,9.75,0.0,0.01,-0.14,0.0011111111111111111,0.0,0.0,-13.75,-5.25,-46.25,28,-0.04937744140625,0.0032958984375,0.0,0.998779296875,360.0,-0.375,5.625
1563146627.969022,360.0,-0.375,5.625,-0.06,-0.96,9.75,0.0,0.01,-0.16,0.0011111111111111111,-0.0011111111111111111,-0.0011111111111111111,-13.75,-5.25,-46.25,28,-0.04937744140625,0.0032958984375,0.0,0.998779296875,360.0,-0.375,5.625
1563146628.010043,360.0,-0.375,5.625,-0.06,-0.96,9.75,0.0,0.0,-0.15,0.0,-0.0033333333333333335,0.0,-13.375,-4.875,-46.25,28,-0.04937744140625,0.0032958984375,0.0,0.998779296875,360.0,-0.375,5.625
1563146628.04957,360.0,-0.375,5.625,-0.06,-0.96,9.75,0.0,0.0,-0.17,-0.0011111111111111111,-0.0011111111111111111,0.0022222222222222222,-14.5,-5.25,-46.25,28,-0.04937744140625,0.0032958984375,0.0,0.998779296875,360.0,-0.375,5.625
1563146628.087902,360.0,-0.375,5.625,-0.06,-0.96,9.75,0.0,0.02,-0.15,0.0011111111111111111,0.0011111111111111111,0.0033333333333333335,-13.375,-6.0,-46.25,28,-0.04937744140625,0.0032958984375,0.0,0.998779296875,360.0,-0.375,5.625
1563146628.127907,360.0,-0.375,5.625,-0.06,-0.96,9.75,0.0,0.0,-0.16,0.0,0.0011111111111111111,0.0,-14.5,-5.25,-46.25,28,-0.04937744140625,0.0032958984375,0.0,0.998779296875,360.0,-0.375,5.625
1563146628.168122,360.0,-0.375,5.625,-0.06,-0.96,9.75,0.0,0.03,-0.18,-0.0011111111111111111,-0.0011111111111111111,0.0,-14.5,-5.25,-46.25,28,-0.04937744140625,0.0032958984375,0.0,0.998779296875,360.0,-0.375,5.625
1563146628.210775,360.0,-0.375,5.625,-0.06,-0.96,9.75,0.01,0.01,-0.22,-0.0011111111111111111,-0.0033333333333333335,0.0022222222222222222,-14.0625,-6.0,-45.0625,28,-0.04937744140625,0.0032958984375,0.0,0.998779296875,360.0,-0.375,5.625
1563146628.250449,360.0,-0.375,5.625,-0.06,-0.96,9.75,0.0,0.02,-0.15,0.0,-0.0033333333333333335,0.0011111111111111111,-14.0625,-6.375,-46.25,28,-0.04937744140625,0.0032958984375,0.0,0.998779296875,360.0,-0.375,5.625
1563146628.290349,360.0,-0.375,5.625,-0.06,-0.96,9.75,0.02,0.0,-0.18,0.0,-0.0033333333333333335,0.0022222222222222222,-13.75,-5.5625,-46.5625,28,-0.04937744140625,0.0032958984375,0.0,0.998779296875,360.0,-0.375,5.625
1563146628.330449,360.0,-0.375,5.625,-0.06,-0.96,9.75,0.0,0.03,-0.17,0.0,0.0,-0.0011111111111111111,-14.5,-5.25,-46.25,28,-0.04937744140625,0.0032958984375,0.0,0.998779296875,360.0,-0.375,5.625
1563146628.370871,360.0,-0.375,5.625,-0.06,-0.96,9.75,0.0,0.02,-0.16,0.0011111111111111111,0.0022222222222222222,0.0,-14.5,-5.25,-46.25,28,-0.04937744140625,0.0032958984375,0.0,0.998779296875,360.0,-0.375,5.625
1563146628.411804,360.0,-0.375,5.625,-0.06,-0.96,9.75,0.01,0.0,-0.17,0.0,0.0,-0.0022222222222222222,-13.75,-6.0,-47.375,28,-0.04937744140625,0.0032958984375,0.0,0.998779296875,360.0,-0.375,5.625
1563146628.451156,360.0,-0.375,5.625,-0.06,-0.96,9.75,0.0,0.0,-0.16,-0.0011111111111111111,0.0011111111111111111,-0.0011111111111111111,-13.75,-4.875,-46.5625,28,-0.04937744140625,0.0032958984375,0.0,0.998779296875,360.0,-0.375,5.625
1563146628.48952,360.0,-0.375,5.625,-0.06,-0.96,9.75,0.0,0.02,-0.2,0.0,0.0,0.0,-14.5,-5.5625,-46.25,28,-0.04937744140625,0.0032958984375,0.0,0.998779296875,360.0,-0.375,5.625
1563146628.529561,360.0,-0.375,5.625,-0.06,-0.96,9.75,0.01,0.0,-0.16,0.0011111111111111111,0.0011111111111111111,0.0011111111111111111,-13.75,-6.0,-45.0625,28,-0.04937744140625,0.0032958984375,0.0,0.998779296875,360.0,-0.375,5.625
1563146628.571459,360.0,-0.375,5.625,-0.06,-0.96,9.75,0.01,0.01,-0.17,0.0011111111111111111,-0.0022222222222222222,-0.0011111111111111111,-13.75,-6.0,-45.0625,28,-0.04937744140625,0.0032958984375,0.0,0.998779296875,360.0,-0.375,5.625
1563146628.612495,360.0,-0.375,5.625,-0.06,-0.96,9.75,0.0,0.0,-0.16,0.0,0.0022222222222222222,-0.0033333333333333335,-14.5,-6.0,-45.375,28,-0.04937744140625,0.0032958984375,0.0,0.998779296875,360.0,-0.375,5.625
1563146628.651938,360.0,-0.375,5.625,-0.06,-0.96,9.75,-0.01,0.01,-0.18,0.0,-0.0011111111111111111,0.0,-14.5,-6.375,-47.0,28,-0.04937744140625,0.0032958984375,0.0,0.998779296875,360.0,-0.375,5.625
1563146628.690307,360.0,-0.375,5.625,-0.06,-0.96,9.75,0.0,0.01,-0.18,0.0011111111111111111,0.0011111111111111111,-0.0011111111111111111,-14.875,-6.0,-47.375,28,-0.04937744140625,0.0032958984375,0.0,0.998779296875,360.0,-0.375,5.625
1563146628.730524,360.0,-0.375,5.625,-0.06,-0.96,9.75,0.0,0.02,-0.13,0.0,-0.0033333333333333335,-0.0022222222222222222,-14.0625,-5.25,-47.375,28,-0.04937744140625,0.0032958984375,0.0,0.998779296875,360.0,-0.375,5.625
1563146628.774207,360.0,-0.375,5.625,-0.06,-0.96,9.75,0.0,0.0,-0.19,0.0011111111111111111,0.0011111111111111111,-0.0022222222222222222,-14.0625,-5.25,-47.375,28,-0.04937744140625,0.0032958984375,0.0,0.998779296875,360.0,-0.375,5.625
1563146628.820666,360.0,-0.375,5.625,-0.06,-0.96,9.75,0.0,0.0,-0.2,-0.0011111111111111111,0.0,0.0011111111111111111,-14.5,-5.5625,-45.75,28,-0.04937744140625,0.0032958984375,0.0,0.998779296875,360.0,-0.375,5.625
1563146628.863482,360.0,-0.375,5.625,-0.06,-0.96,9.75,0.01,0.0,-0.15,-0.0011111111111111111,-0.0022222222222222222,0.0,-14.0625,-6.0,-45.375,28,-0.04937744140625,0.0032958984375,0.0,0.998779296875,360.0,-0.375,5.625
1563146628.903109,360.0,-0.375,5.625,-0.06,-0.96,9.75,-0.02,0.0,-0.19,0.0,0.0011111111111111111,0.0,-14.0625,-5.5625,-45.875,28,-0.04937744140625,0.0032958984375,0.0,0.998779296875,360.0,-0.375,5.625
1563146628.941344,360.0,-0.375,5.625,-0.06,-0.96,9.75,0.0,0.0,-0.18,0.0011111111111111111,-0.0022222222222222222,0.0,-13.375,-4.875,-45.875,28,-0.04937744140625,0.0032958984375,0.0,0.998779296875,360.0,-0.375,5.625
1563146628.98131,360.0,-0.375,5.625,-0.06,-0.96,9.75,0.0,0.01,-0.18,0.0,-0.0011111111111111111,-0.0022222222222222222,-14.5,-6.375,-46.5625,28,-0.04937744140625,0.0032958984375,0.0,0.998779296875,360.0,-0.375,5.625
1563146629.025978,360.0,-0.375,5.625,-0.06,-0.96,9.75,0.01,0.03,-0.17,0.0,0.0,0.0,-14.5,-6.375,-46.5625,28,-0.04937744140625,0.0032958984375,0.0,0.998779296875,360.0,-0.375,5.625
1563146629.073616,360.0,-0.375,5.625,-0.06,-0.96,9.75,0.0,0.0,-0.19,0.0011111111111111111,-0.0011111111111111111,-0.0011111111111111111,-14.875,-5.5625,-45.875,28,-0.04937744140625,0.0032958984375,0.0,0.998779296875,360.0,-0.375,5.625
1563146629.114399,360.0,-0.375,5.625,-0.06,-0.96,9.75,-0.01,0.02,-0.19,0.0,0.0011111111111111111,-0.0011111111111111111,-13.0,-6.0,-45.875,28,-0.04937744140625,0.0032958984375,0.0,0.998779296875,360.0,-0.375,5.625
1563146629.153983,360.0,-0.375,5.625,-0.06,-0.96,9.75,-0.01,0.03,-0.16,0.0,0.0033333333333333335,0.0011111111111111111,-14.0625,-6.0,-46.5625,28,-0.04937744140625,0.0032958984375,0.0,0.998779296875,360.0,-0.375,5.625
1563146629.192339,360.0,-0.375,5.625,-0.06,-0.96,9.75,-0.01,0.01,-0.19,0.0011111111111111111,0.0,-0.0011111111111111111,-13.75,-6.0,-45.75,28,-0.04937744140625,0.0032958984375,0.0,0.998779296875,360.0,-0.375,5.625
1563146629.232231,360.0,-0.375,5.625,-0.06,-0.96,9.75,-0.02,0.01,-0.16,0.0011111111111111111,0.0,-0.0011111111111111111,-14.5,-6.0,-46.5625,28,-0.04937744140625,0.0032958984375,0.0,0.998779296875,360.0,-0.375,5.625
1563146629.274466,360.0,-0.375,5.625,-0.06,-0.96,9.75,-0.01,0.0,-0.17,-0.0011111111111111111,-0.0011111111111111111,0.0,-14.5,-6.0,-46.5625,28,-0.04937744140625,0.0032958984375,0.0,0.998779296875,360.0,-0.375,5.625
1563146629.316652,360.0,-0.375,5.625,-0.06,-0.96,9.75,0.01,0.03,-0.18,0.0022222222222222222,-0.0022222222222222222,-0.0022222222222222222,-14.5,-6.0,-47.0,28,-0.04937744140625,0.0032958984375,0.0,0.998779296875,360.0,-0.375,5.625
1563146629.356712,360.0,-0.375,5.625,-0.06,-0.96,9.75,0.01,0.0,-0.19,0.0,-0.0011111111111111111,-0.0011111111111111111,-14.5,-5.5625,-45.75,28,-0.04937744140625,0.0032958984375,0.0,0.998779296875,360.0,-0.375,5.625
1563146629.396732,360.0,-0.375,5.625,-0.06,-0.96,9.75,0.0,0.0,-0.2,-0.0011111111111111111,0.0022222222222222222,0.0011111111111111111,-14.0625,-5.25,-46.25,28,-0.04937744140625,0.0032958984375,0.0,0.998779296875,360.0,-0.375,5.625
1563146629.444117,360.0,-0.375,5.625,-0.06,-0.96,9.75,0.0,0.01,-0.19,0.0,-0.0022222222222222222,0.0011111111111111111,-14.5,-4.5,-47.375,28,-0.04937744140625,0.0032958984375,0.0,0.998779296875,360.0,-0.375,5.625
1563146629.485316,360.0,-0.375,5.625,-0.06,-0.96,9.75,0.0,0.01,-0.18,0.0,0.0011111111111111111,-0.0022222222222222222,-15.25,-5.25,-46.25,28,-0.04937744140625,0.0032958984375,0.0,0.998779296875,360.0,-0.375,5.625
1563146629.525489,360.0,-0.375,5.625,-0.06,-0.96,9.75,-0.01,0.01,-0.19,0.0011111111111111111,-0.0011111111111111111,0.0011111111111111111,-15.25,-5.25,-46.25,28,-0.04937744140625,0.0032958984375,0.0,0.998779296875,360.0,-0.375,5.625
1563146629.566329,360.0,-0.375,5.625,-0.06,-0.96,9.75,0.0,0.0,-0.2,0.0022222222222222222,0.0011111111111111111,0.0,-14.0625,-5.5625,-47.375,28,-0.04937744140625,0.0032958984375,0.0,0.998779296875,360.0,-0.375,5.625
1563146629.605708,360.0,-0.375,5.625,-0.06,-0.96,9.75,0.02,0.0,-0.2,0.0,-0.0011111111111111111,0.0022222222222222222,-14.0625,-5.25,-46.5625,28,-0.04937744140625,0.0032958984375,0.0,0.998779296875,360.0,-0.375,5.625
1563146629.646049,360.0,-0.375,5.625,-0.06,-0.96,9.75,0.01,0.02,-0.18,0.0,-0.0022222222222222222,0.0022222222222222222,-15.25,-5.5625,-45.875,28,-0.04937744140625,0.0032958984375,0.0,0.998779296875,360.0,-0.375,5.625
1563146629.686087,360.0,-0.375,5.625,-0.06,-0.96,9.75,0.02,0.02,-0.17,-0.0011111111111111111,0.0011111111111111111,0.0011111111111111111,-13.75,-5.5625,-45.875,28,-0.04937744140625,0.0032958984375,0.0,0.998779296875,360.0,-0.375,5.625
1563146629.728231,360.0,-0.375,5.625,-0.06,-0.96,9.75,0.01,0.0,-0.19,0.0011111111111111111,-0.0022222222222222222,-0.0011111111111111111,-13.75,-5.5625,-45.875,28,-0.04937744140625,0.0032958984375,0.0,0.998779296875,360.0,-0.375,5.625
1563146629.774629,360.0,-0.375,5.625,-0.06,-0.96,9.75,0.01,0.0,-0.16,0.0,0.0,0.0,-13.375,-6.375,-46.25,28,-0.04937744140625,0.0032958984375,0.0,0.998779296875,360.0,-0.375,5.625
1563146629.817909,360.0,-0.375,5.625,-0.06,-0.96,9.75,-0.01,0.0,-0.16,0.0,0.0022222222222222222,-0.0011111111111111111,-13.75,-5.5625,-47.0,28,-0.04937744140625,0.0032958984375,0.0,0.998779296875,360.0,-0.375,5.625
1563146629.861081,360.0,-0.375,5.625,-0.06,-0.96,9.75,0.0,0.01,-0.16,0.0,0.0011111111111111111,-0.0011111111111111111,-14.875,-6.0,-47.375,28,-0.04937744140625,0.0032958984375,0.0,0.998779296875,360.0,-0.375,5.625
1563146629.899299,360.0,-0.375,5.625,-0.06,-0.96,9.75,0.0,0.0,-0.19,0.0011111111111111111,0.0011111111111111111,0.0,-15.25,-6.0,-46.25,28,-0.04937744140625,0.0032958984375,0.0,0.998779296875,360.0,-0.375,5.625
1563146629.938733,360.0,-0.375,5.625,-0.06,-0.96,9.75,0.0,0.01,-0.18,0.0011111111111111111,-0.0011111111111111111,0.0011111111111111111,-14.875,-5.25,-47.0,28,-0.04937744140625,0.0032958984375,0.0,0.998779296875,360.0,-0.375,5.625
1563146629.981277,360.0,-0.375,5.625,-0.06,-0.96,9.75,0.0,0.0,-0.15,0.0011111111111111111,0.0044444444444444444,0.0011111111111111111,-14.5,-5.5625,-47.0,28,-0.04937744140625,0.0032958984375,0.0,0.998779296875,360.0,-0.375,5.625
1563146630.027517,360.0,-0.375,5.625,-0.06,-0.96,9.75,0.0,0.0,-0.15,0.0022222222222222222,0.0022222222222222222,-0.0011111111111111111,-14.5,-5.5625,-47.0,28,-0.04937744140625,0.0032958984375,0.0,0.998779296875,360.0,-0.375,5.625
1563146630.070202,360.0,-0.375,5.625,-0.06,-0.96,9.75,-0.01,0.01,-0.16,-0.0011111111111111111,0.0022222222222222222,-0.0011111111111111111,-14.5,-5.5625,-45.875,28,-0.04937744140625,0.0032958984375,0.0,0.998779296875,360.0,-0.375,5.625
1563146630.109713,360.0,-0.375,5.625,-0.06,-0.96,9.75,0.0,0.0,-0.17,0.0,0.0022222222222222222,0.0011111111111111111,-14.5,-5.25,-46.25,28,-0.04937744140625,0.0032958984375,0.0,0.998779296875,360.0,-0.375,5.625
1563146630.149871,360.0,-0.375,5.625,-0.06,-0.96,9.75,0.0,0.01,-0.2,-0.0011111111111111111,0.0,0.0011111111111111111,-14.875,-5.5625,-46.25,28,-0.04937744140625,0.0032958984375,0.0,0.998779296875,360.0,-0.375,5.625
1563146630.188164,360.0,-0.375,5.625,-0.06,-0.96,9.75,0.0,0.02,-0.16,0.0011111111111111111,0.0011111111111111111,-0.0022222222222222222,-13.75,-4.875,-47.375,28,-0.04937744140625,0.0032958984375,0.0,0.998779296875,360.0,-0.375,5.625
1563146630.228322,360.0,-0.375,5.625,-0.06,-0.96,9.75,-0.01,0.0,-0.18,0.0011111111111111111,0.0011111111111111111,-0.0011111111111111111,-13.75,-4.875,-47.375,28,-0.04937744140625,0.0032958984375,0.0,0.998779296875,360.0,-0.375,5.625
1563146630.269162,360.0,-0.375,5.625,-0.06,-0.96,9.75,-0.01,0.01,-0.15,0.0,0.0022222222222222222,0.0011111111111111111,-14.875,-6.0,-45.875,28,-0.04937744140625,0.0032958984375,0.0,0.998779296875,360.0,-0.375,5.625
1563146630.311698,360.0,-0.375,5.625,-0.06,-0.96,9.75,0.0,0.01,-0.17,-0.0011111111111111111,-0.0022222222222222222,0.0011111111111111111,-14.875,-5.5625,-45.875,28,-0.04937744140625,0.0032958984375,0.0,0.998779296875,360.0,-0.375,5.625
1563146630.352766,360.0,-0.375,5.625,-0.06,-0.96,9.75,0.01,0.02,-0.17,0.0,0.0,0.0011111111111111111,-13.75,-4.875,-46.5625,28,-0.04937744140625,0.0032958984375,0.0,0.998779296875,360.0,-0.375,5.625
1563146630.390902,360.0,-0.375,5.625,-0.06,-0.96,9.75,0.0,0.02,-0.17,0.0022222222222222222,-0.0022222222222222222,0.0022222222222222222,-14.5,-5.25,-46.5625,28,-0.04937744140625,0.0032958984375,0.0,0.998779296875,360.0,-0.375,5.625
1563146630.438781,360.0,-0.375,5.625,-0.06,-0.96,9.75,0.0,0.01,-0.15,0.0011111111111111111,0.0022222222222222222,0.0011111111111111111,-14.0625,-4.875,-45.75,28,-0.04937744140625,0.0032958984375,0.0,0.998779296875,360.0,-0.375,5.625
1563146630.483243,360.0,-0.375,5.625,-0.06,-0.96,9.75,0.0,0.02,-0.15,0.0011111111111111111,0.0022222222222222222,-0.0011111111111111111,-14.0625,-5.5625,-46.5625,28,-0.04937744140625,0.0032958984375,0.0,0.998779296875,360.0,-0.375,5.625
1563146630.527667,360.0,-0.375,5.625,-0.06,-0.96,9.75,0.01,0.03,-0.17,0.0,0.0022222222222222222,0.0011111111111111111,-14.0625,-5.5625,-46.5625,28,-0.04937744140625,0.0032958984375,0.0,0.998779296875,360.0,-0.375,5.625
1563146630.570294,360.0,-0.375,5.625,-0.06,-0.96,9.75,0.0,0.01,-0.17,0.0011111111111111111,0.0,0.0,-14.5,-5.5625,-44.25,28,-0.04937744140625,0.0032958984375,0.0,0.998779296875,360.0,-0.375,5.625
1563146630.609797,360.0,-0.375,5.625,-0.06,-0.96,9.75,0.0,0.01,-0.16,0.0011111111111111111,0.0022222222222222222,0.0,-15.5625,-5.5625,-45.75,28,-0.04937744140625,0.0032958984375,0.0,0.998779296875,360.0,-0.375,5.625
1563146630.653443,360.0,-0.375,5.625,-0.06,-0.96,9.75,0.0,0.02,-0.2,0.0011111111111111111,-0.0022222222222222222,0.0,-14.875,-5.5625,-45.75,28,-0.04937744140625,0.0032958984375,0.0,0.998779296875,360.0,-0.375,5.625
1563146630.704306,360.0,-0.375,5.625,-0.06,-0.96,9.75,0.0,0.0,-0.18,-0.0011111111111111111,0.0022222222222222222,-0.0011111111111111111,-14.875,-5.5625,-45.75,28,-0.04937744140625,0.0032958984375,0.0,0.998779296875,360.0,-0.375,5.625
1563146630.741969,360.0,-0.375,5.625,-0.06,-0.96,9.75,0.0,0.03,-0.15,0.0,0.0033333333333333335,0.0,-14.5,-4.875,-47.0,28,-0.04937744140625,0.0032958984375,0.0,0.998779296875,360.0,-0.375,5.625
1563146630.78884,360.0,-0.375,5.625,-0.06,-0.96,9.75,0.0,0.02,-0.16,0.0011111111111111111,0.0011111111111111111,0.0,-14.875,-5.25,-46.5625,28,-0.04937744140625,0.0032958984375,0.0,0.998779296875,360.0,-0.375,5.625
1563146630.83324,360.0,-0.375,5.625,-0.06,-0.96,9.75,0.0,0.01,-0.16,0.0011111111111111111,0.0011111111111111111,0.0,-14.875,-5.25,-46.5625,28,-0.04937744140625,0.0032958984375,0.0,0.998779296875,360.0,-0.375,5.625
1563146630.879165,360.0,-0.375,5.625,-0.06,-0.96,9.75,0.0,0.0,-0.19,0.0,0.0,0.0011111111111111111,-14.875,-6.0,-46.25,28,-0.04937744140625,0.0032958984375,0.0,0.998779296875,360.0,-0.375,5.625
1563146630.921714,360.0,-0.375,5.625,-0.06,-0.96,9.75,0.01,0.0,-0.17,0.0,0.0033333333333333335,-0.0011111111111111111,-13.75,-5.5625,-46.5625,28,-0.04937744140625,0.0032958984375,0.0,0.998779296875,360.0,-0.375,5.625
1563146630.961178,360.0,-0.375,5.625,-0.06,-0.96,9.75,0.0,0.03,-0.16,0.0,-0.0022222222222222222,0.0011111111111111111,-14.5,-5.25,-46.5625,28,-0.04937744140625,0.0032958984375,0.0,0.998779296875,360.0,-0.375,5.625
1563146630.999703,360.0,-0.375,5.625,-0.06,-0.96,9.75,-0.01,0.02,-0.18,0.0,0.0,0.0033333333333333335,-13.75,-6.0,-47.0,28,-0.04937744140625,0.0032958984375,0.0,0.998779296875,360.0,-0.375,5.625
1563146631.039591,360.0,-0.375,5.625,-0.06,-0.96,9.75,0.0,0.0,-0.16,-0.0011111111111111111,0.0033333333333333335,0.0011111111111111111,-14.875,-5.5625,-47.0,28,-0.04937744140625,0.0032958984375,0.0,0.998779296875,360.0,-0.375,5.625
1563146631.081737,360.0,-0.375,5.625,-0.06,-0.96,9.75,0.0,0.0,-0.15,0.0011111111111111111,0.0,-0.0011111111111111111,-14.875,-5.5625,-47.0,28,-0.04937744140625,0.0032958984375,0.0,0.998779296875,360.0,-0.375,5.625
1563146631.124259,360.0,-0.375,5.625,-0.06,-0.96,9.75,0.0,0.0,-0.16,0.0,-0.0011111111111111111,0.0,-14.5,-6.0,-46.5625,28,-0.04937744140625,0.0032958984375,0.0,0.998779296875,360.0,-0.375,5.625
1563146631.163837,360.0,-0.375,5.625,-0.06,-0.96,9.75,0.0,0.0,-0.18,-0.0011111111111111111,0.0,0.0,-13.75,-5.25,-47.0,28,-0.04937744140625,0.0032958984375,0.0,0.998779296875,360.0,-0.375,5.625
1563146631.202092,360.0,-0.375,5.625,-0.06,-0.96,9.75,0.02,0.04,-0.2,-0.0011111111111111111,0.0,0.0,-13.375,-4.875,-46.25,28,-0.04937744140625,0.0032958984375,0.0,0.998779296875,360.0,-0.375,5.625
1563146631.243871,360.0,-0.375,5.625,-0.06,-0.96,9.75,-0.01,0.02,-0.18,0.0,-0.0011111111111111111,0.0,-13.375,-6.0,-47.0,28,-0.04937744140625,0.0032958984375,0.0,0.998779296875,360.0,-0.375,5.625
1563146631.286368,360.0,-0.375,5.625,-0.06,-0.96,9.75,-0.01,0.0,-0.17,-0.0011111111111111111,0.0011111111111111111,-0.0011111111111111111,-13.75,-4.875,-47.0,28,-0.04937744140625,0.0032958984375,0.0,0.998779296875,360.0,-0.375,5.625
1563146631.330972,360.0,-0.375,5.625,-0.06,-0.96,9.75,0.0,0.03,-0.15,-0.0011111111111111111,-0.0011111111111111111,0.0011111111111111111,-13.75,-4.875,-47.0,28,-0.04937744140625,0.0032958984375,0.0,0.998779296875,360.0,-0.375,5.625
1563146631.373539,360.0,-0.375,5.625,-0.06,-0.96,9.75,0.0,0.01,-0.15,0.0,0.0011111111111111111,0.0,-14.875,-6.0,-47.375,28,-0.04937744140625,0.0032958984375,0.0,0.998779296875,360.0,-0.375,5.625
1563146631.413797,360.0,-0.375,5.625,-0.06,-0.96,9.75,0.0,0.0,-0.18,0.0,0.0,0.0,-14.5,-5.5625,-46.25,28,-0.04937744140625,0.0032958984375,0.0,0.998779296875,360.0,-0.375,5.625
1563146631.455048,360.0,-0.375,5.625,-0.06,-0.96,9.75,0.0,0.0,-0.19,-0.0011111111111111111,0.0,-0.0011111111111111111,-14.0625,-6.0,-46.5625,28,-0.04937744140625,0.0032958984375,0.0,0.998779296875,360.0,-0.375,5.625
1563146631.493298,360.0,-0.375,5.625,-0.06,-0.96,9.75,0.0,0.0,-0.15,0.0022222222222222222,0.0011111111111111111,0.0,-14.5,-5.25,-47.375,28,-0.04937744140625,0.0032958984375,0.0,0.998779296875,360.0,-0.375,5.625
1563146631.535241,360.0,-0.375,5.625,-0.06,-0.96,9.75,0.01,0.0,-0.16,0.0,0.0033333333333333335,0.0033333333333333335,-14.5,-5.25,-47.375,28,-0.04937744140625,0.0032958984375,0.0,0.998779296875,360.0,-0.375,5.625
1563146631.576157,360.0,-0.375,5.625,-0.06,-0.96,9.75,-0.01,0.0,-0.16,0.0011111111111111111,0.0011111111111111111,-0.0033333333333333335,-14.5,-6.0,-47.0,28,-0.04937744140625,0.0032958984375,0.0,0.998779296875,360.0,-0.375,5.625
1563146631.61596,360.0,-0.375,5.625,-0.06,-0.96,9.75,0.0,0.01,-0.16,0.0011111111111111111,0.0011111111111111111,0.0022222222222222222,-14.875,-5.5625,-47.375,28,-0.04937744140625,0.0032958984375,0.0,0.998779296875,360.0,-0.375,5.625
1563146631.65577,360.0,-0.375,5.625,-0.06,-0.96,9.75,0.0,0.02,-0.18,0.0011111111111111111,0.0011111111111111111,-0.0011111111111111111,-14.5,-5.5625,-46.5625,28,-0.04937744140625,0.0032958984375,0.0,0.998779296875,360.0,-0.375,5.625
1563146631.694359,360.0,-0.375,5.625,-0.06,-0.96,9.75,0.01,0.0,-0.16,0.0,0.0022222222222222222,0.0,-14.875,-6.0,-47.375,28,-0.04937744140625,0.0032958984375,0.0,0.998779296875,360.0,-0.375,5.625
1563146631.736073,360.0,-0.375,5.625,-0.06,-0.96,9.75,0.0,0.0,-0.16,-0.0011111111111111111,0.0011111111111111111,-0.0011111111111111111,-14.875,-6.0,-47.375,28,-0.04937744140625,0.0032958984375,0.0,0.998779296875,360.0,-0.375,5.625
1563146631.777068,360.0,-0.375,5.625,-0.06,-0.96,9.75,0.0,0.0,-0.15,0.0022222222222222222,0.0011111111111111111,0.0011111111111111111,-14.5,-6.0,-46.25,28,-0.04937744140625,0.0032958984375,0.0,0.998779296875,360.0,-0.375,5.625
1563146631.817764,360.0,-0.375,5.625,-0.06,-0.96,9.75,0.01,0.0,-0.17,0.0022222222222222222,0.0044444444444444444,-0.0011111111111111111,-14.5,-5.5625,-46.5625,28,-0.04937744140625,0.0032958984375,0.0,0.998779296875,360.0,-0.375,5.625
1563146631.858853,360.0,-0.375,5.625,-0.06,-0.96,9.75,0.01,0.0,-0.15,-0.0011111111111111111,-0.0033333333333333335,0.0011111111111111111,-14.5,-5.25,-46.5625,28,-0.04937744140625,0.0032958984375,0.0,0.998779296875,360.0,-0.375,5.625
1563146631.896886,360.0,-0.375,5.625,-0.06,-0.96,9.75,0.0,0.02,-0.17,0.0011111111111111111,0.0011111111111111111,0.0,-14.5,-5.5625,-47.0,28,-0.04937744140625,0.0032958984375,0.0,0.998779296875,360.0,-0.375,5.625
1563146631.943002,360.0,-0.375,5.625,-0.06,-0.96,9.75,0.0,0.0,-0.17,0.0011111111111111111,0.0011111111111111111,0.0011111111111111111,-13.375,-5.25,-47.0,28,-0.04937744140625,0.0032958984375,0.0,0.998779296875,360.0,-0.375,5.625
1563146631.983316,360.0,-0.375,5.625,-0.06,-0.96,9.75,0.0,0.01,-0.14,0.0011111111111111111,-0.0011111111111111111,0.0011111111111111111,-13.375,-5.25,-47.0,28,-0.04937744140625,0.0032958984375,0.0,0.998779296875,360.0,-0.375,5.625
1563146632.018219,360.0,-0.375,5.625,-0.06,-0.96,9.75,-0.01,0.01,-0.15,-0.0022222222222222222,-0.0011111111111111111,0.0,-13.75,-4.875,-47.0,28,-0.04937744140625,0.0032958984375,0.0,0.998779296875,360.0,-0.375,5.625
1563146632.056635,360.0,-0.375,5.625,-0.06,-0.96,9.75,0.0,0.02,-0.18,0.0,0.0,-0.0011111111111111111,-14.5,-5.5625,-46.5625,28,-0.04937744140625,0.0032958984375,0.0,0.998779296875,360.0,-0.375,5.625
1563146632.095322,360.0,-0.375,5.625,-0.06,-0.96,9.75,0.0,0.0,-0.17,-0.0011111111111111111,-0.0033333333333333335,0.0,-14.5,-6.0,-47.375,28,-0.04937744140625,0.0032958984375,0.0,0.998779296875,360.0,-0.375,5.625
1563146632.135397,360.0,-0.375,5.625,-0.06,-0.96,9.75,0.0,0.02,-0.17,0.0,-0.0033333333333333335,-0.0011111111111111111,-14.5,-6.0,-47.375,28,-0.04937744140625,0.0032958984375,0.0,0.998779296875,360.0,-0.375,5.625
1563146632.170114,360.0,-0.375,5.625,-0.06,-0.96,9.75,-0.01,0.01,-0.16,0.0,0.0022222222222222222,0.0011111111111111111,-14.5,-5.5625,-46.5625,28,-0.04937744140625,0.0032958984375,0.0,0.998779296875,360.0,-0.375,5.625
1563146632.207445,360.0,-0.375,5.625,-0.06,-0.96,9.75,0.0,0.02,-0.16,-0.0011111111111111111,0.0011111111111111111,0.0,-14.5,-5.25,-46.5625,28,-0.04937744140625,0.0032958984375,0.0,0.998779296875,360.0,-0.375,5.625
1563146632.246172,360.0,-0.375,5.625,-0.06,-0.96,9.75,0.0,0.01,-0.18,0.0,-0.0022222222222222222,0.0,-14.875,-5.5625,-45.375,28,-0.04937744140625,0.0032958984375,0.0,0.998779296875,360.0,-0.375,5.625
1563146632.285963,360.0,-0.375,5.625,-0.06,-0.96,9.75,-0.01,0.0,-0.14,0.0,-0.0011111111111111111,0.0022222222222222222,-14.875,-5.5625,-45.375,28,-0.04937744140625,0.0032958984375,0.0,0.998779296875,360.0,-0.375,5.625
1563146632.327636,360.0,-0.375,5.625,-0.06,-0.96,9.75,0.0,0.03,-0.15,0.0,0.0011111111111111111,0.0011111111111111111,-13.75,-5.5625,-46.5625,28,-0.04937744140625,0.0032958984375,0.0,0.998779296875,360.0,-0.375,5.625
1563146632.366277,360.0,-0.375,5.625,-0.06,-0.96,9.75,-0.01,0.01,-0.16,0.0011111111111111111,-0.0011111111111111111,-0.0011111111111111111,-14.875,-5.5625,-45.375,28,-0.04937744140625,0.0032958984375,0.0,0.998779296875,360.0,-0.375,5.625
1563146632.400617,360.0,-0.375,5.625,-0.06,-0.96,9.75,0.01,0.0,-0.19,-0.0011111111111111111,-0.0011111111111111111,-0.0033333333333333335,-14.0625,-4.875,-45.375,28,-0.04937744140625,0.0032958984375,0.0,0.998779296875,360.0,-0.375,5.625
1563146632.444919,360.0,-0.375,5.625,-0.06,-0.96,9.75,0.0,0.01,-0.15,0.0022222222222222222,-0.0011111111111111111,0.0,-14.5,-5.5625,-46.25,28,-0.04937744140625,0.0032958984375,0.0,0.998779296875,360.0,-0.375,5.625
1563146632.485309,360.0,-0.375,5.625,-0.06,-0.96,9.75,-0.02,0.0,-0.15,0.0,0.0022222222222222222,-0.0022222222222222222,-14.5,-5.5625,-46.25,28,-0.04937744140625,0.0032958984375,0.0,0.998779296875,360.0,-0.375,5.625
1563146632.519836,360.0,-0.375,5.625,-0.06,-0.96,9.75,0.0,0.02,-0.17,0.0011111111111111111,0.0011111111111111111,-0.0022222222222222222,-13.75,-5.25,-45.375,28,-0.04937744140625,0.0032958984375,0.0,0.998779296875,360.0,-0.375,5.625
1563146632.558527,360.0,-0.375,5.625,-0.06,-0.96,9.75,0.01,0.02,-0.22,0.0,0.0,-0.0011111111111111111,-14.875,-5.25,-45.375,28,-0.04937744140625,0.0032958984375,0.0,0.998779296875,360.0,-0.375,5.625
1563146632.597224,360.0,-0.375,5.625,-0.06,-0.96,9.75,0.0,0.02,-0.17,0.0,0.0022222222222222222,-0.0011111111111111111,-13.75,-5.5625,-46.5625,28,-0.04937744140625,0.0032958984375,0.0,0.998779296875,360.0,-0.375,5.625
1563146632.637384,360.0,-0.375,5.625,-0.06,-0.96,9.75,0.01,0.02,-0.15,0.0,-0.0011111111111111111,-0.0033333333333333335,-13.75,-5.5625,-46.5625,28,-0.04937744140625,0.0032958984375,0.0,0.998779296875,360.0,-0.375,5.625
1563146632.67845,360.0,-0.375,5.625,-0.06,-0.96,9.75,0.0,0.02,-0.18,0.0011111111111111111,-0.0022222222222222222,0.0033333333333333335,-13.75,-4.875,-46.25,28,-0.04937744140625,0.0032958984375,0.0,0.998779296875,360.0,-0.375,5.625
1563146632.717718,360.0,-0.375,5.625,-0.06,-0.96,9.75,0.0,0.01,-0.15,-0.0011111111111111111,-0.0022222222222222222,-0.0011111111111111111,-13.75,-5.25,-46.5625,28,-0.04937744140625,0.0032958984375,0.0,0.998779296875,360.0,-0.375,5.625
1563146632.752339,360.0,-0.375,5.625,-0.06,-0.96,9.75,-0.02,0.01,-0.16,0.0011111111111111111,-0.0011111111111111111,0.0,-14.5,-4.875,-46.25,28,-0.04937744140625,0.0032958984375,0.0,0.998779296875,360.0,-0.375,5.625
1563146632.792186,360.0,-0.375,5.625,-0.06,-0.96,9.75,-0.01,0.01,-0.14,0.0022222222222222222,-0.0011111111111111111,0.0011111111111111111,-14.875,-5.5625,-47.0,28,-0.04937744140625,0.0032958984375,0.0,0.998779296875,360.0,-0.375,5.625
1563146632.836633,360.0,-0.375,5.625,-0.06,-0.96,9.75,0.0,0.0,-0.16,0.0022222222222222222,0.0011111111111111111,-0.0033333333333333335,-14.875,-5.5625,-47.0,28,-0.04937744140625,0.0032958984375,0.0,0.998779296875,360.0,-0.375,5.625
1563146632.872967,360.0,-0.375,5.625,-0.06,-0.96,9.75,0.0,0.0,-0.2,-0.0011111111111111111,0.0022222222222222222,-0.0011111111111111111,-14.5,-6.0,-46.25,28,-0.04937744140625,0.0032958984375,0.0,0.998779296875,360.0,-0.375,5.625
1563146632.91099,360.0,-0.375,5.625,-0.06,-0.96,9.75,0.01,0.0,-0.2,0.0,0.0022222222222222222,-0.0011111111111111111,-14.0625,-6.0,-46.25,28,-0.04937744140625,0.0032958984375,0.0,0.998779296875,360.0,-0.375,5.625
1563146632.950704,360.0,-0.375,5.625,-0.06,-0.96,9.75,0.01,0.01,-0.15,0.0,-0.0011111111111111111,-0.0011111111111111111,-13.75,-5.5625,-46.5625,28,-0.04937744140625,0.0032958984375,0.0,0.998779296875,360.0,-0.375,5.625
1563146632.993109,360.0,-0.375,5.625,-0.06,-0.96,9.75,0.0,0.03,-0.18,0.0011111111111111111,0.0011111111111111111,-0.0011111111111111111,-13.375,-5.5625,-47.0,28,-0.04937744140625,0.0032958984375,0.0,0.998779296875,360.0,-0.375,5.625
1563146633.037658,360.0,-0.375,5.625,-0.06,-0.96,9.75,0.0,0.02,-0.16,0.0,0.0022222222222222222,0.0,-13.375,-5.5625,-47.0,28,-0.04937744140625,0.0032958984375,0.0,0.998779296875,360.0,-0.375,5.625
1563146633.080353,360.0,-0.375,5.625,-0.06,-0.96,9.75,0.0,0.01,-0.16,0.0011111111111111111,0.0022222222222222222,0.0011111111111111111,-14.0625,-5.5625,-45.0625,28,-0.04937744140625,0.0032958984375,0.0,0.998779296875,360.0,-0.375,5.625
1563146633.119849,360.0,-0.375,5.625,-0.06,-0.96,9.75,0.0,0.02,-0.16,0.0,-0.0011111111111111111,0.0022222222222222222,-14.5,-5.5625,-46.5625,28,-0.04937744140625,0.0032958984375,0.0,0.998779296875,360.0,-0.375,5.625
1563146633.158176,360.0,-0.375,5.625,-0.06,-0.96,9.75,-0.02,0.01,-0.19,0.0011111111111111111,0.0033333333333333335,-0.0022222222222222222,-14.875,-6.375,-45.375,28,-0.04937744140625,0.0032958984375,0.0,0.998779296875,360.0,-0.375,5.625
1563146633.198333,360.0,-0.375,5.625,-0.06,-0.96,9.75,0.0,-0.01,-0.15,0.0011111111111111111,0.0,-0.0011111111111111111,-14.5,-5.5625,-46.25,28,-0.04937744140625,0.0032958984375,0.0,0.998779296875,360.0,-0.375,5.625
1563146633.240123,360.0,-0.375,5.625,-0.06,-0.96,9.75,0.0,0.01,-0.18,0.0011111111111111111,0.0022222222222222222,0.0,-14.5,-5.5625,-46.25,28,-0.04937744140625,0.0032958984375,0.0,0.998779296875,360.0,-0.375,5.625
1563146633.280989,360.0,-0.375,5.625,-0.06,-0.96,9.75,0.01,0.0,-0.19,0.0,0.0022222222222222222,-0.0022222222222222222,-13.75,-5.25,-45.375,28,-0.04937744140625,0.0032958984375,0.0,0.998779296875,360.0,-0.375,5.625
1563146633.320675,360.0,-0.375,5.625,-0.06,-0.96,9.75,0.0,0.03,-0.19,0.0022222222222222222,-0.0011111111111111111,0.0,-14.5,-4.875,-47.375,28,-0.04937744140625,0.0032958984375,0.0,0.998779296875,360.0,-0.375,5.625
1563146633.358934,360.0,-0.375,5.625,-0.06,-0.96,9.75,0.0,0.0,-0.21,0.0011111111111111111,0.0022222222222222222,0.0,-13.375,-5.5625,-45.75,28,-0.04937744140625,0.0032958984375,0.0,0.998779296875,360.0,-0.375,5.625
1563146633.398985,360.0,-0.375,5.625,-0.06,-0.96,9.75,0.0,0.0,-0.19,0.0011111111111111111,0.0011111111111111111,0.0,-13.75,-5.25,-45.875,28,-0.04937744140625,0.0032958984375,0.0,0.998779296875,360.0,-0.375,5.625
1563146633.441064,360.0,-0.375,5.625,-0.06,-0.96,9.75,0.01,0.02,-0.15,0.0011111111111111111,-0.0011111111111111111,-0.0011111111111111111,-13.75,-5.25,-45.875,28,-0.04937744140625,0.0032958984375,0.0,0.998779296875,360.0,-0.375,5.625
1563146633.483769,360.0,-0.375,5.625,-0.06,-0.96,9.75,0.0,0.02,-0.18,-0.0011111111111111111,0.0011111111111111111,0.0,-13.75,-6.0,-46.25,28,-0.04937744140625,0.0032958984375,0.0,0.998779296875,360.0,-0.375,5.625
1563146633.523107,360.0,-0.375,5.625,-0.06,-0.96,9.75,-0.01,0.01,-0.17,0.0,0.0022222222222222222,0.0,-14.0625,-5.5625,-45.875,28,-0.04937744140625,0.0032958984375,0.0,0.998779296875,360.0,-0.375,5.625
1563146633.561385,360.0,-0.375,5.625,-0.06,-0.96,9.75,-0.01,0.01,-0.18,0.0011111111111111111,0.0,0.0,-14.0625,-5.25,-45.875,28,-0.04937744140625,0.0032958984375,0.0,0.998779296875,360.0,-0.375,5.625
1563146633.599938,360.0,-0.375,5.625,-0.06,-0.96,9.75,-0.01,0.0,-0.16,-0.0011111111111111111,0.0033333333333333335,0.0011111111111111111,-14.0625,-6.375,-46.5625,28,-0.04937744140625,0.0032958984375,0.0,0.998779296875,360.0,-0.375,5.625
1563146633.641908,360.0,-0.375,5.625,-0.06,-0.96,9.75,0.0,0.04,-0.16,0.0,0.0022222222222222222,0.0,-14.0625,-6.375,-46.5625,28,-0.04937744140625,0.0032958984375,0.0,0.998779296875,360.0,-0.375,5.625
1563146633.682663,360.0,-0.375,5.625,-0.06,-0.96,9.75,-0.01,0.01,-0.17,0.0,0.005555555555555556,0.0,-14.5,-5.5625,-45.375,28,-0.04937744140625,0.0032958984375,0.0,0.998779296875,360.0,-0.375,5.625
1563146633.722143,360.0,-0.375,5.625,-0.06,-0.96,9.75,0.01,0.01,-0.17,0.0011111111111111111,-0.0022222222222222222,0.0,-14.5,-6.0,-45.375,28,-0.04937744140625,0.0032958984375,0.0,0.998779296875,360.0,-0.375,5.625
1563146633.762095,360.0,-0.375,5.625,-0.06,-0.96,9.75,0.0,0.02,-0.2,0.0,0.0011111111111111111,0.0011111111111111111,-14.875,-5.5625,-46.5625,28,-0.04937744140625,0.0032958984375,0.0,0.998779296875,360.0,-0.375,5.625
1563146633.800739,360.0,-0.375,5.625,-0.06,-0.96,9.75,0.01,0.02,-0.17,0.0,-0.0044444444444444444,-0.0011111111111111111,-13.375,-5.25,-47.0,28,-0.04937744140625,0.0032958984375,0.0,0.998779296875,360.0,-0.375,5.625
1563146633.844631,360.0,-0.375,5.625,-0.06,-0.96,9.75,0.01,0.01,-0.16,0.0,0.0033333333333333335,-0.0011111111111111111,-13.375,-5.25,-47.0,28,-0.04937744140625,0.0032958984375,0.0,0.998779296875,360.0,-0.375,5.625
1563146633.891062,360.0,-0.375,5.625,-0.06,-0.96,9.75,0.0,0.02,-0.15,-0.0022222222222222222,-0.0011111111111111111,-0.0011111111111111111,-14.875,-6.0,-45.0625,28,-0.04937744140625,0.0032958984375,0.0,0.998779296875,360.0,-0.375,5.625
1563146633.933597,360.0,-0.375,5.625,-0.06,-0.96,9.75,0.0,0.03,-0.18,0.0,0.0011111111111111111,-0.0011111111111111111,-15.25,-6.375,-46.25,28,-0.04937744140625,0.0032958984375,0.0,0.998779296875,360.0,-0.375,5.625
1563146633.973264,360.0,-0.375,5.625,-0.06,-0.96,9.75,0.0,0.0,-0.2,0.0011111111111111111,0.0011111111111111111,0.0011111111111111111,-14.0625,-5.5625,-44.6875,28,-0.04937744140625,0.0032958984375,0.0,0.998779296875,360.0,-0.375,5.625
1563146634.011817,360.0,-0.375,5.625,-0.06,-0.96,9.75,0.01,0.02,-0.14,0.0011111111111111111,0.0,0.0022222222222222222,-14.5,-6.0,-47.0,28,-0.04937744140625,0.0032958984375,0.0,0.998779296875,360.0,-0.375,5.625
1563146634.051591,360.0,-0.375,5.625,-0.06,-0.96,9.75,0.0,0.01,-0.17,0.0,0.0011111111111111111,0.0,-14.875,-6.0,-46.25,28,-0.04937744140625,0.0032958984375,0.0,0.998779296875,360.0,-0.375,5.625
1563146634.0938,360.0,-0.375,5.625,-0.06,-0.96,9.75,0.0,0.01,-0.14,0.0033333333333333335,0.0,0.0022222222222222222,-14.875,-6.0,-46.25,28,-0.04937744140625,0.0032958984375,0.0,0.998779296875,360.0,-0.375,5.625
1563146634.134634,360.0,-0.375,5.625,-0.06,-0.96,9.75,-0.03,0.01,-0.15,0.0011111111111111111,0.0033333333333333335,-0.0011111111111111111,-14.5,-6.0,-46.25,28,-0.04937744140625,0.0032958984375,0.0,0.998779296875,360.0,-0.375,5.625
1563146634.17416,360.0,-0.375,5.625,-0.06,-0.96,9.75,0.0,0.01,-0.17,0.0,-0.0022222222222222222,0.0,-14.0625,-4.875,-46.25,28,-0.04937744140625,0.0032958984375,0.0,0.998779296875,360.0,-0.375,5.625
1563146634.212292,360.0,-0.375,5.625,-0.06,-0.96,9.75,0.0,0.02,-0.18,-0.0011111111111111111,0.0,0.0011111111111111111,-14.875,-5.5625,-45.375,28,-0.04937744140625,0.0032958984375,0.0,0.998779296875,360.0,-0.375,5.625
1563146634.252581,360.0,-0.375,5.625,-0.06,-0.96,9.75,0.0,0.0,-0.16,0.0,0.0022222222222222222,0.0,-13.75,-5.25,-46.25,28,-0.04937744140625,0.0032958984375,0.0,0.998779296875,360.0,-0.375,5.625
1563146634.294611,360.0,-0.375,5.625,-0.06,-0.96,9.75,0.01,0.0,-0.17,0.0022222222222222222,0.0011111111111111111,0.0011111111111111111,-13.75,-5.25,-46.25,28,-0.04937744140625,0.0032958984375,0.0,0.998779296875,360.0,-0.375,5.625
1563146634.335859,360.0,-0.375,5.625,-0.06,-0.96,9.75,0.0,0.03,-0.18,0.0,0.0,0.0011111111111111111,-14.0625,-5.25,-46.25,28,-0.04937744140625,0.0032958984375,0.0,0.998779296875,360.0,-0.375,5.625
1563146634.374866,360.0,-0.375,5.625,-0.06,-0.96,9.75,0.0,0.02,-0.16,0.0,0.0,-0.0011111111111111111,-14.0625,-5.5625,-45.875,28,-0.04937744140625,0.0032958984375,0.0,0.998779296875,360.0,-0.375,5.625
1563146634.413441,360.0,-0.375,5.625,-0.06,-0.96,9.75,0.01,0.01,-0.15,-0.0011111111111111111,-0.0011111111111111111,0.0,-14.0625,-5.25,-45.375,28,-0.04937744140625,0.0032958984375,0.0,0.998779296875,360.0,-0.375,5.625
1563146634.453284,360.0,-0.375,5.625,-0.06,-0.96,9.75,-0.01,0.01,-0.17,0.0,-0.0011111111111111111,0.0022222222222222222,-14.875,-5.5625,-46.5625,28,-0.04937744140625,0.0032958984375,0.0,0.998779296875,360.0,-0.375,5.625
1563146634.495362,360.0,-0.375,5.625,-0.06,-0.96,9.75,0.0,0.01,-0.15,-0.0011111111111111111,0.0,-0.0011111111111111111,-14.875,-5.5625,-46.5625,28,-0.04937744140625,0.0032958984375,0.0,0.998779296875,360.0,-0.375,5.625
1563146634.53617,360.0,-0.375,5.625,-0.06,-0.96,9.75,0.0,0.01,-0.16,0.0033333333333333335,-0.0011111111111111111,0.0,-14.875,-6.0,-45.375,28,-0.04937744140625,0.0032958984375,0.0,0.998779296875,360.0,-0.375,5.625
1563146634.575687,360.0,-0.375,5.625,-0.06,-0.96,9.75,0.0,0.01,-0.16,0.0011111111111111111,-0.0011111111111111111,0.0011111111111111111,-14.875,-5.25,-46.5625,28,-0.04937744140625,0.0032958984375,0.0,0.998779296875,360.0,-0.375,5.625
1563146634.615893,360.0,-0.375,5.625,-0.06,-0.96,9.75,0.01,0.0,-0.2,0.0,-0.0011111111111111111,0.0022222222222222222,-14.0625,-5.5625,-45.875,28,-0.04937744140625,0.0032958984375,0.0,0.998779296875,360.0,-0.375,5.625
1563146634.655776,360.0,-0.375,5.625,-0.06,-0.96,9.75,0.01,0.01,-0.18,0.0,0.0011111111111111111,-0.0022222222222222222,-13.75,-5.5625,-45.875,28,-0.04937744140625,0.0032958984375,0.0,0.998779296875,360.0,-0.375,5.625
1563146634.696171,360.0,-0.375,5.625,-0.06,-0.96,9.75,0.0,0.0,-0.19,-0.0011111111111111111,-0.0011111111111111111,0.0011111111111111111,-13.75,-5.5625,-45.875,28,-0.04937744140625,0.0032958984375,0.0,0.998779296875,360.0,-0.375,5.625
1563146634.738771,360.0,-0.375,5.625,-0.06,-0.96,9.75,0.01,0.0,-0.18,0.0,0.0,0.0011111111111111111,-14.5,-5.5625,-45.375,28,-0.04937744140625,0.0032958984375,0.0,0.998779296875,360.0,-0.375,5.625
1563146634.778319,360.0,-0.375,5.625,-0.06,-0.96,9.75,0.0,0.01,-0.15,-0.0011111111111111111,0.0,0.0033333333333333335,-14.0625,-5.5625,-46.5625,28,-0.04937744140625,0.0032958984375,0.0,0.998779296875,360.0,-0.375,5.625
1563146634.816942,360.0,-0.375,5.625,-0.06,-0.96,9.75,-0.02,0.02,-0.17,0.0,-0.0011111111111111111,-0.0011111111111111111,-13.375,-5.5625,-45.75,28,-0.04937744140625,0.0032958984375,0.0,0.998779296875,360.0,-0.375,5.625
1563146634.85657,360.0,-0.375,5.625,-0.06,-0.96,9.75,0.0,0.02,-0.21,0.0,0.0,0.0022222222222222222,-14.875,-4.875,-46.5625,28,-0.04937744140625,0.0032958984375,0.0,0.998779296875,360.0,-0.375,5.625
1563146634.896769,360.0,-0.375,5.625,-0.06,-0.96,9.75,0.02,0.0,-0.16,0.0,0.0011111111111111111,-0.0011111111111111111,-14.875,-4.875,-46.5625,28,-0.04937744140625,0.0032958984375,0.0,0.998779296875,360.0,-0.375,5.625
1563146634.937729,360.0,-0.375,5.625,-0.06,-0.96,9.75,0.01,0.01,-0.18,0.0,0.0011111111111111111,-0.0011111111111111111,-14.0625,-5.25,-46.5625,28,-0.04937744140625,0.0032958984375,0.0,0.998779296875,360.0,-0.375,5.625
1563146634.977252,360.0,-0.375,5.625,-0.06,-0.96,9.75,0.01,0.02,-0.17,0.0011111111111111111,-0.0011111111111111111,0.0,-14.875,-5.5625,-45.875,28,-0.04937744140625,0.0032958984375,0.0,0.998779296875,360.0,-0.375,5.625
1563146635.015694,360.0,-0.375,5.625,-0.06,-0.96,9.75,0.0,0.01,-0.18,0.0011111111111111111,0.0,-0.0011111111111111111,-15.25,-5.25,-46.5625,28,-0.04937744140625,0.0032958984375,0.0,0.998779296875,360.0,-0.375,5.625
1563146635.055709,360.0,-0.375,5.625,-0.06,-0.96,9.75,0.0,0.02,-0.16,0.0011111111111111111,0.0,0.0,-13.75,-5.25,-47.0625,28,-0.04937744140625,0.0032958984375,0.0,0.998779296875,360.0,-0.375,5.625
1563146635.097621,360.0,-0.375,5.625,-0.06,-0.96,9.75,0.0,0.01,-0.18,-0.0022222222222222222,0.0022222222222222222,-0.0022222222222222222,-13.75,-5.25,-47.0625,28,-0.04937744140625,0.0032958984375,0.0,0.998779296875,360.0,-0.375,5.625
1563146635.138537,360.0,-0.375,5.625,-0.06,-0.96,9.75,0.0,0.03,-0.18,-0.0011111111111111111,0.0011111111111111111,0.0,-14.0625,-6.0,-45.875,28,-0.04937744140625,0.0032958984375,0.0,0.998779296875,360.0,-0.375,5.625
1563146635.178141,360.0,-0.375,5.625,-0.06,-0.96,9.75,0.0,0.01,-0.18,0.0011111111111111111,-0.0022222222222222222,-0.0011111111111111111,-13.375,-5.25,-47.0,28,-0.04937744140625,0.0032958984375,0.0,0.998779296875,360.0,-0.375,5.625
1563146635.216355,360.0,-0.375,5.625,-0.06,-0.96,9.75,-0.01,0.0,-0.19,0.0011111111111111111,0.0011111111111111111,-0.0011111111111111111,-14.5,-5.5625,-46.25,28,-0.04937744140625,0.0032958984375,0.0,0.998779296875,360.0,-0.375,5.625
1563146635.256451,360.0,-0.375,5.625,-0.06,-0.96,9.75,-0.01,0.0,-0.15,-0.0011111111111111111,0.0011111111111111111,-0.0033333333333333335,-13.75,-5.5625,-45.75,28,-0.04937744140625,0.0032958984375,0.0,0.998779296875,360.0,-0.375,5.625
1563146635.298453,360.0,-0.375,5.625,-0.06,-0.96,9.75,0.0,0.01,-0.19,0.0011111111111111111,0.0,0.0022222222222222222,-13.75,-5.5625,-45.75,28,-0.04937744140625,0.0032958984375,0.0,0.998779296875,360.0,-0.375,5.625
1563146635.339975,360.0,-0.375,5.625,-0.06,-0.96,9.75,-0.01,0.02,-0.17,0.0,-0.0022222222222222222,0.0,-14.875,-5.25,-45.875,28,-0.04937744140625,0.0032958984375,0.0,0.998779296875,360.0,-0.375,5.625
1563146635.378914,360.0,-0.375,5.625,-0.06,-0.96,9.75,0.0,0.0,-0.18,-0.0011111111111111111,0.0011111111111111111,-0.0022222222222222222,-13.75,-5.25,-46.25,28,-0.04937744140625,0.0032958984375,0.0,0.998779296875,360.0,-0.375,5.625
1563146635.417231,360.0,-0.375,5.625,-0.06,-0.96,9.75,0.0,0.01,-0.18,-0.0011111111111111111,0.0011111111111111111,-0.0011111111111111111,-14.0625,-5.25,-46.25,28,-0.04937744140625,0.0032958984375,0.0,0.998779296875,360.0,-0.375,5.625
1563146635.457357,360.0,-0.375,5.625,-0.06,-0.96,9.75,0.0,0.0,-0.18,0.0022222222222222222,-0.0011111111111111111,0.0011111111111111111,-14.875,-5.5625,-47.0,28,-0.04937744140625,0.0032958984375,0.0,0.998779296875,360.0,-0.375,5.625
1563146635.501092,360.0,-0.375,5.625,-0.06,-0.96,9.75,0.0,0.01,-0.15,0.0,-0.0011111111111111111,0.0,-14.875,-5.5625,-47.0,28,-0.04937744140625,0.0032958984375,0.0,0.998779296875,360.0,-0.375,5.625
1563146635.541898,360.0,-0.375,5.625,-0.06,-0.96,9.75,-0.02,0.02,-0.18,0.0022222222222222222,-0.0011111111111111111,-0.0011111111111111111,-13.75,-4.5,-45.875,28,-0.04937744140625,0.0032958984375,0.0,0.998779296875,360.0,-0.375,5.625
1563146635.581544,360.0,-0.375,5.625,-0.06,-0.96,9.75,0.0,0.0,-0.18,0.0011111111111111111,-0.0011111111111111111,0.0,-14.0625,-5.5625,-45.875,28,-0.04937744140625,0.0032958984375,0.0,0.998779296875,360.0,-0.375,5.625
1563146635.620008,360.0,-0.375,5.625,-0.06,-0.96,9.75,0.02,0.02,-0.19,0.0011111111111111111,0.0,0.0011111111111111111,-13.75,-6.0,-45.0625,28,-0.04937744140625,0.0032958984375,0.0,0.998779296875,360.0,-0.375,5.625
1563146635.659776,360.0,-0.375,5.625,-0.06,-0.96,9.75,0.0,0.01,-0.16,0.0011111111111111111,-0.0011111111111111111,0.0,-14.875,-5.5625,-45.375,28,-0.04937744140625,0.0032958984375,0.0,0.998779296875,360.0,-0.375,5.625
1563146635.701841,360.0,-0.375,5.625,-0.06,-0.96,9.75,0.0,0.01,-0.11,0.0011111111111111111,-0.0011111111111111111,-0.0011111111111111111,-14.875,-5.5625,-45.375,28,-0.04937744140625,0.0032958984375,0.0,0.998779296875,360.0,-0.375,5.625
1563146635.742718,360.0,-0.375,5.625,-0.06,-0.96,9.75,0.0,0.02,-0.17,0.0,0.0011111111111111111,-0.0011111111111111111,-14.5,-6.375,-45.375,28,-0.04937744140625,0.0032958984375,0.0,0.998779296875,360.0,-0.375,5.625
1563146635.782438,360.0,-0.375,5.625,-0.06,-0.96,9.75,0.01,0.0,-0.16,0.0,0.0022222222222222222,0.0022222222222222222,-13.75,-5.5625,-45.875,28,-0.04937744140625,0.0032958984375,0.0,0.998779296875,360.0,-0.375,5.625
1563146635.820588,360.0,-0.375,5.625,-0.06,-0.96,9.75,0.01,0.0,-0.19,0.0,-0.0011111111111111111,0.0,-14.5,-6.0,-45.875,28,-0.04937744140625,0.0032958984375,0.0,0.998779296875,360.0,-0.375,5.625
1563146635.858899,360.0,-0.375,5.625,-0.06,-0.96,9.75,0.01,0.0,-0.19,0.0011111111111111111,-0.0011111111111111111,0.0,-13.75,-5.5625,-45.875,28,-0.04937744140625,0.0032958984375,0.0,0.998779296875,360.0,-0.375,5.625
1563146635.902956,360.0,-0.375,5.625,-0.06,-0.96,9.75,0.01,0.02,-0.13,0.0,-0.0011111111111111111,-0.0022222222222222222,-13.75,-5.5625,-45.875,28,-0.04937744140625,0.0032958984375,0.0,0.998779296875,360.0,-0.375,5.625
1563146635.949442,360.0,-0.375,5.625,-0.06,-0.96,9.75,0.0,0.02,-0.17,0.0011111111111111111,-0.0011111111111111111,-0.0011111111111111111,-14.5,-5.5625,-45.0625,28,-0.04937744140625,0.0032958984375,0.0,0.998779296875,360.0,-0.375,5.625
1563146635.992082,360.0,-0.375,5.625,-0.06,-0.96,9.75,0.01,0.0,-0.15,0.0,-0.0022222222222222222,-0.0011111111111111111,-14.0625,-5.5625,-46.25,28,-0.04937744140625,0.0032958984375,0.0,0.998779296875,360.0,-0.375,5.625
1563146636.031585,360.0,-0.375,5.625,-0.06,-0.96,9.75,-0.01,0.01,-0.19,0.0022222222222222222,0.0011111111111111111,-0.0011111111111111111,-13.75,-5.5625,-46.5625,28,-0.04937744140625,0.0032958984375,0.0,0.998779296875,360.0,-0.375,5.625
1563146636.071563,360.0,-0.375,5.625,-0.06,-0.96,9.75,0.0,0.0,-0.19,0.0,0.0022222222222222222,-0.0011111111111111111,-14.0625,-5.5625,-45.0625,28,-0.04937744140625,0.0032958984375,0.0,0.998779296875,360.0,-0.375,5.625
1563146636.111816,360.0,-0.375,5.625,-0.06,-0.96,9.75,0.01,0.02,-0.19,0.0011111111111111111,-0.0011111111111111111,0.0,-14.0625,-6.375,-47.375,28,-0.04937744140625,0.0032958984375,0.0,0.998779296875,360.0,-0.375,5.625
1563146636.15589,360.0,-0.375,5.625,-0.06,-0.96,9.75,0.0,0.01,-0.17,-0.0011111111111111111,0.0033333333333333335,-0.0022222222222222222,-13.75,-6.0,-45.875,28,-0.04937744140625,0.0032958984375,0.0,0.998779296875,360.0,-0.375,5.625
1563146636.20032,360.0,-0.375,5.625,-0.06,-0.96,9.75,0.0,0.02,-0.19,0.0022222222222222222,-0.0022222222222222222,-0.0011111111111111111,-13.75,-6.0,-45.875,28,-0.04937744140625,0.0032958984375,0.0,0.998779296875,360.0,-0.375,5.625
1563146636.243078,360.0,-0.375,5.625,-0.06,-0.96,9.75,0.0,0.01,-0.16,0.0,-0.0022222222222222222,0.0,-14.875,-6.0,-45.375,28,-0.04937744140625,0.0032958984375,0.0,0.998779296875,360.0,-0.375,5.625
1563146636.282769,360.0,-0.375,5.625,-0.06,-0.96,9.75,0.0,0.01,-0.18,0.0,-0.0011111111111111111,-0.0011111111111111111,-14.875,-5.25,-45.0625,28,-0.04937744140625,0.0032958984375,0.0,0.998779296875,360.0,-0.375,5.625
1563146636.32275,360.0,-0.375,5.625,-0.06,-0.96,9.75,0.0,0.01,-0.18,0.0011111111111111111,0.0011111111111111111,-0.0011111111111111111,-13.75,-6.0,-46.5625,28,-0.04937744140625,0.0032958984375,0.0,0.998779296875,360.0,-0.375,5.625
1563146636.362842,360.0,-0.375,5.625,-0.06,-0.96,9.75,0.02,0.0,-0.16,0.0,0.0,-0.0022222222222222222,-14.0625,-5.5625,-46.5625,28,-0.04937744140625,0.0032958984375,0.0,0.998779296875,360.0,-0.375,5.625
1563146636.404792,360.0,-0.375,5.625,-0.06,-0.96,9.75,0.01,0.03,-0.14,-0.0011111111111111111,0.0011111111111111111,0.0011111111111111111,-14.0625,-5.5625,-46.5625,28,-0.04937744140625,0.0032958984375,0.0,0.998779296875,360.0,-0.375,5.625
1563146636.454069,360.0,-0.375,5.625,-0.06,-0.96,9.75,0.0,0.0,-0.16,0.0033333333333333335,-0.0022222222222222222,-0.0011111111111111111,-14.0625,-5.5625,-45.875,28,-0.04937744140625,0.0032958984375,0.0,0.998779296875,360.0,-0.375,5.625
1563146636.502007,360.0,-0.375,5.625,-0.06,-0.96,9.75,0.0,0.0,-0.15,0.0022222222222222222,-0.0022222222222222222,0.0011111111111111111,-13.375,-6.375,-46.25,28,-0.04937744140625,0.0032958984375,0.0,0.998779296875,360.0,-0.375,5.625
1563146636.546534,360.0,-0.375,5.625,-0.06,-0.96,9.75,0.01,0.0,-0.18,0.0,0.0,-0.0011111111111111111,-13.75,-6.375,-47.0625,28,-0.04937744140625,0.0032958984375,0.0,0.998779296875,360.0,-0.375,5.625
1563146636.588099,360.0,-0.375,5.625,-0.06,-0.96,9.75,0.0,0.01,-0.17,-0.0022222222222222222,0.0,-0.0011111111111111111,-14.875,-5.25,-46.25,28,-0.04937744140625,0.0032958984375,0.0,0.998779296875,360.0,-0.375,5.625
1563146636.624822,360.0,-0.375,5.625,-0.06,-0.96,9.75,0.0,0.0,-0.17,0.0011111111111111111,0.0,-0.0011111111111111111,-13.75,-6.0,-46.5625,28,-0.04937744140625,0.0032958984375,0.0,0.998779296875,360.0,-0.375,5.625
1563146636.663655,360.0,-0.375,5.625,-0.06,-0.96,9.75,-0.01,0.01,-0.17,0.0,0.0,0.0011111111111111111,-14.0625,-4.875,-46.25,28,-0.04937744140625,0.0032958984375,0.0,0.998779296875,360.0,-0.375,5.625
1563146636.704071,360.0,-0.375,5.625,-0.06,-0.96,9.75,-0.01,0.01,-0.15,-0.0011111111111111111,-0.0011111111111111111,0.0011111111111111111,-14.0625,-4.875,-46.25,28,-0.04937744140625,0.0032958984375,0.0,0.998779296875,360.0,-0.375,5.625
1563146636.738483,360.0,-0.375,5.625,-0.06,-0.96,9.75,0.0,0.0,-0.18,-0.0011111111111111111,-0.0011111111111111111,-0.0011111111111111111,-14.0625,-6.0,-46.25,28,-0.04937744140625,0.0032958984375,0.0,0.998779296875,360.0,-0.375,5.625
1563146636.775513,360.0,-0.375,5.625,-0.06,-0.96,9.75,0.0,0.01,-0.16,0.0011111111111111111,-0.0011111111111111111,0.0,-14.875,-5.5625,-45.375,28,-0.04937744140625,0.0032958984375,0.0,0.998779296875,360.0,-0.375,5.625
1563146636.814597,360.0,-0.375,5.625,-0.06,-0.96,9.75,-0.02,0.02,-0.18,0.0011111111111111111,0.0011111111111111111,0.0022222222222222222,-13.375,-5.25,-47.75,28,-0.04937744140625,0.0032958984375,0.0,0.998779296875,360.0,-0.375,5.625
1563146636.8543,360.0,-0.375,5.625,-0.06,-0.96,9.75,0.0,0.0,-0.16,0.0011111111111111111,0.0,0.0011111111111111111,-13.375,-5.25,-47.75,28,-0.04937744140625,0.0032958984375,0.0,0.998779296875,360.0,-0.375,5.625
1563146636.889111,360.0,-0.375,5.625,-0.06,-0.96,9.75,-0.01,0.01,-0.17,-0.0011111111111111111,0.0,0.0011111111111111111,-14.875,-6.375,-46.5625,28,-0.04937744140625,0.0032958984375,0.0,0.998779296875,360.0,-0.375,5.625
1563146636.926278,360.0,-0.375,5.625,-0.06,-0.96,9.75,0.0,0.03,-0.2,-0.0022222222222222222,0.0022222222222222222,-0.0011111111111111111,-13.375,-5.25,-45.0625,28,-0.04937744140625,0.0032958984375,0.0,0.998779296875,360.0,-0.375,5.625
1563146636.964648,360.0,-0.375,5.625,-0.06,-0.96,9.75,0.0,0.01,-0.17,0.0022222222222222222,0.0,0.0,-14.5,-6.375,-46.25,28,-0.04937744140625,0.0032958984375,0.0,0.998779296875,360.0,-0.375,5.625
1563146637.004955,360.0,-0.375,5.625,-0.06,-0.96,9.75,-0.02,0.01,-0.17,0.0,0.0022222222222222222,0.0,-14.5,-6.375,-46.25,28,-0.04937744140625,0.0032958984375,0.0,0.998779296875,360.0,-0.375,5.625
1563146637.039725,360.0,-0.375,5.625,-0.06,-0.96,9.75,-0.01,0.01,-0.18,0.0011111111111111111,0.0022222222222222222,0.0,-14.0625,-5.25,-46.5625,28,-0.04937744140625,0.0032958984375,0.0,0.998779296875,360.0,-0.375,5.625
1563146637.076732,360.0,-0.375,5.625,-0.06,-0.96,9.75,0.0,0.02,-0.19,-0.0011111111111111111,0.0011111111111111111,-0.0011111111111111111,-14.875,-5.25,-45.875,28,-0.04937744140625,0.0032958984375,0.0,0.998779296875,360.0,-0.375,5.625
1563146637.115491,360.0,-0.375,5.625,-0.06,-0.96,9.75,0.0,0.01,-0.15,0.0022222222222222222,0.0011111111111111111,0.0011111111111111111,-13.375,-6.0,-46.25,28,-0.04937744140625,0.0032958984375,0.0,0.998779296875,360.0,-0.375,5.625
1563146637.15549,360.0,-0.375,5.625,-0.06,-0.96,9.75,0.0,0.0,-0.17,0.0022222222222222222,0.0,0.0011111111111111111,-13.375,-6.0,-46.25,28,-0.04937744140625,0.0032958984375,0.0,0.998779296875,360.0,-0.375,5.625
1563146637.196658,360.0,-0.375,5.625,-0.06,-0.96,9.75,0.0,0.03,-0.15,0.0,0.0033333333333333335,-0.0011111111111111111,-15.25,-6.0,-45.875,28,-0.04937744140625,0.0032958984375,0.0,0.998779296875,360.0,-0.375,5.625
1563146637.230723,360.0,-0.375,5.625,-0.06,-0.96,9.75,0.0,0.01,-0.19,0.0011111111111111111,0.0011111111111111111,0.0011111111111111111,-14.0625,-4.875,-46.5625,28,-0.04937744140625,0.0032958984375,0.0,0.998779296875,360.0,-0.375,5.625
1563146637.267536,360.0,-0.375,5.625,-0.06,-0.96,9.75,-0.01,0.01,-0.18,0.0011111111111111111,-0.0011111111111111111,0.0022222222222222222,-14.875,-6.75,-46.25,28,-0.04937744140625,0.0032958984375,0.0,0.998779296875,360.0,-0.375,5.625
1563146637.308348,360.0,-0.375,5.625,-0.06,-0.96,9.75,0.0,0.0,-0.15,-0.0011111111111111111,0.0,0.0011111111111111111,-14.875,-6.75,-46.25,28,-0.04937744140625,0.0032958984375,0.0,0.998779296875,360.0,-0.375,5.625
1563146637.349726,360.0,-0.375,5.625,-0.06,-0.96,9.75,0.0,0.01,-0.16,0.0011111111111111111,0.0022222222222222222,0.0,-14.0625,-6.375,-47.375,28,-0.04937744140625,0.0032958984375,0.0,0.998779296875,360.0,-0.375,5.625
1563146637.388817,360.0,-0.375,5.625,-0.06,-0.96,9.75,0.0,0.02,-0.17,0.0011111111111111111,-0.0022222222222222222,0.0,-13.75,-6.0,-46.5625,28,-0.04937744140625,0.0032958984375,0.0,0.998779296875,360.0,-0.375,5.625
1563146637.430629,360.0,-0.375,5.625,-0.06,-0.96,9.75,0.0,0.0,-0.16,-0.0011111111111111111,0.0,0.0,-14.0625,-5.5625,-45.875,28,-0.04937744140625,0.0032958984375,0.0,0.998779296875,360.0,-0.375,5.625
1563146637.47152,360.0,-0.375,5.625,-0.06,-0.96,9.75,0.0,0.01,-0.15,0.0011111111111111111,0.0011111111111111111,-0.0011111111111111111,-14.5,-4.875,-46.5625,28,-0.04937744140625,0.0032958984375,0.0,0.998779296875,360.0,-0.375,5.625
1563146637.515682,360.0,-0.375,5.625,-0.06,-0.96,9.75,0.0,0.0,-0.17,0.0,-0.0011111111111111111,-0.0022222222222222222,-14.0625,-5.5625,-46.25,28,-0.04937744140625,0.0032958984375,0.0,0.998779296875,360.0,-0.375,5.625
1563146637.557856,360.0,-0.375,5.625,-0.06,-0.96,9.75,0.0,0.02,-0.17,0.0011111111111111111,0.0,0.0,-14.0625,-5.5625,-46.25,28,-0.04937744140625,0.0032958984375,0.0,0.998779296875,360.0,-0.375,5.625
1563146637.600636,360.0,-0.375,5.625,-0.06,-0.96,9.75,-0.02,0.01,-0.16,0.0022222222222222222,0.0033333333333333335,-0.0033333333333333335,-14.0625,-5.25,-45.875,28,-0.04937744140625,0.0032958984375,0.0,0.998779296875,360.0,-0.375,5.625
1563146637.639906,360.0,-0.375,5.625,-0.06,-0.96,9.75,0.0,0.0,-0.16,0.0022222222222222222,0.0,-0.0022222222222222222,-14.5,-5.5625,-46.5625,28,-0.04937744140625,0.0032958984375,0.0,0.998779296875,360.0,-0.375,5.625
1563146637.678214,360.0,-0.375,5.625,-0.06,-0.96,9.75,0.0,0.0,-0.19,0.0011111111111111111,-0.0022222222222222222,-0.0022222222222222222,-14.5,-6.375,-46.5625,28,-0.04937744140625,0.0032958984375,0.0,0.998779296875,360.0,-0.375,5.625
1563146637.716626,360.0,-0.375,5.625,-0.06,-0.96,9.75,0.0,0.01,-0.18,0.0,-0.0033333333333333335,0.0011111111111111111,-14.0625,-6.0,-46.5625,28,-0.04937744140625,0.0032958984375,0.0,0.998779296875,360.0,-0.375,5.625
1563146637.758391,360.0,-0.375,5.625,-0.06,-0.96,9.75,0.0,0.0,-0.15,-0.0022222222222222222,0.0011111111111111111,-0.0033333333333333335,-14.0625,-6.0,-46.5625,28,-0.04937744140625,0.0032958984375,0.0,0.998779296875,360.0,-0.375,5.625
1563146637.799252,360.0,-0.375,5.625,-0.06,-0.96,9.75,0.0,0.01,-0.17,0.0,0.0011111111111111111,-0.0011111111111111111,-14.875,-6.375,-45.875,28,-0.04937744140625,0.0032958984375,0.0,0.998779296875,360.0,-0.375,5.625
1563146637.840964,360.0,-0.375,5.625,-0.06,-0.96,9.75,0.0,0.02,-0.19,-0.0022222222222222222,0.0011111111111111111,-0.0022222222222222222,-14.875,-5.5625,-46.25,28,-0.04937744140625,0.0032958984375,0.0,0.998779296875,360.0,-0.375,5.625
1563146637.880887,360.0,-0.375,5.625,-0.06,-0.96,9.75,0.0,0.0,-0.17,0.0,0.0022222222222222222,-0.0011111111111111111,-13.375,-4.875,-45.375,28,-0.04937744140625,0.0032958984375,0.0,0.998779296875,360.0,-0.375,5.625
1563146637.91918,360.0,-0.375,5.625,-0.06,-0.96,9.75,0.0,0.02,-0.16,0.0011111111111111111,0.0,0.0,-13.375,-6.0,-47.375,28,-0.04937744140625,0.0032958984375,0.0,0.998779296875,360.0,-0.375,5.625
1563146637.959254,360.0,-0.375,5.625,-0.06,-0.96,9.75,0.0,0.02,-0.19,0.0,0.0022222222222222222,0.0,-13.375,-6.0,-47.375,28,-0.04937744140625,0.0032958984375,0.0,0.998779296875,360.0,-0.375,5.625
1563146638.0001,360.0,-0.375,5.625,-0.06,-0.96,9.75,0.0,0.0,-0.16,-0.0011111111111111111,0.0,0.0,-14.0625,-5.25,-46.5625,28,-0.04937744140625,0.0032958984375,0.0,0.998779296875,360.0,-0.375,5.625
1563146638.041476,360.0,-0.375,5.625,-0.06,-0.96,9.75,0.0,0.02,-0.17,0.0011111111111111111,0.0011111111111111111,0.0,-14.0625,-5.5625,-45.375,28,-0.04937744140625,0.0032958984375,0.0,0.998779296875,360.0,-0.375,5.625
1563146638.079738,360.0,-0.375,5.625,-0.06,-0.96,9.75,0.02,0.01,-0.17,0.0011111111111111111,0.0011111111111111111,0.0011111111111111111,-14.875,-5.5625,-47.375,28,-0.04937744140625,0.0032958984375,0.0,0.998779296875,360.0,-0.375,5.625
1563146638.118183,360.0,-0.375,5.625,-0.06,-0.96,9.75,0.0,0.0,-0.15,-0.0011111111111111111,0.0044444444444444444,0.0,-14.5,-5.5625,-46.25,28,-0.04937744140625,0.0032958984375,0.0,0.998779296875,360.0,-0.375,5.625
1563146638.160162,360.0,-0.375,5.625,-0.06,-0.96,9.75,-0.01,0.01,-0.16,0.0011111111111111111,0.0022222222222222222,0.0022222222222222222,-14.5,-5.5625,-46.25,28,-0.04937744140625,0.0032958984375,0.0,0.998779296875,360.0,-0.375,5.625
1563146638.200888,360.0,-0.375,5.625,-0.06,-0.96,9.75,0.0,0.0,-0.18,-0.0011111111111111111,-0.0011111111111111111,0.0022222222222222222,-14.0625,-4.875,-46.25,28,-0.04937744140625,0.0032958984375,0.0,0.998779296875,360.0,-0.375,5.625
1563146638.242841,360.0,-0.375,5.625,-0.06,-0.96,9.75,0.0,0.01,-0.16,-0.0011111111111111111,0.0011111111111111111,-0.0011111111111111111,-14.0625,-5.5625,-45.5,28,-0.04937744140625,0.0032958984375,0.0,0.998779296875,360.0,-0.375,5.625
1563146638.282884,360.0,-0.375,5.625,-0.06,-0.96,9.75,-0.02,0.0,-0.19,-0.0011111111111111111,0.0033333333333333335,0.0011111111111111111,-14.0625,-5.5625,-46.25,28,-0.04937744140625,0.0032958984375,0.0,0.998779296875,360.0,-0.375,5.625
1563146638.322844,360.0,-0.375,5.625,-0.06,-0.96,9.75,0.0,0.0,-0.16,0.0011111111111111111,0.0,0.0011111111111111111,-14.0625,-6.0,-46.6875,28,-0.04937744140625,0.0032958984375,0.0,0.998779296875,360.0,-0.375,5.625
1563146638.369034,360.0,-0.375,5.625,-0.06,-0.96,9.75,0.0,0.01,-0.2,-0.0011111111111111111,-0.0033333333333333335,0.0011111111111111111,-14.5,-5.25,-46.6875,28,-0.04937744140625,0.0032958984375,0.0,0.998779296875,360.0,-0.375,5.625
1563146638.411323,360.0,-0.375,5.625,-0.06,-0.96,9.75,0.0,0.01,-0.17,0.0,0.0011111111111111111,-0.0022222222222222222,-14.5,-5.25,-46.6875,28,-0.04937744140625,0.0032958984375,0.0,0.998779296875,360.0,-0.375,5.625
1563146638.459676,360.0,-0.375,5.625,-0.06,-0.96,9.75,0.0,0.0,-0.16,0.0011111111111111111,0.0011111111111111111,-0.0011111111111111111,-15.25,-6.0,-45.875,28,-0.04937744140625,0.0032958984375,0.0,0.998779296875,360.0,-0.375,5.625
1563146638.50225,360.0,-0.375,5.625,-0.06,-0.96,9.75,0.0,0.0,-0.18,0.0011111111111111111,0.0022222222222222222,-0.0011111111111111111,-14.5,-6.375,-46.25,28,-0.04937744140625,0.0032958984375,0.0,0.998779296875,360.0,-0.375,5.625
1563146638.541786,360.0,-0.375,5.625,-0.06,-0.96,9.75,-0.01,0.0,-0.16,-0.0011111111111111111,0.0,0.0,-14.0625,-5.5625,-46.25,28,-0.04937744140625,0.0032958984375,0.0,0.998779296875,360.0,-0.375,5.625
1563146638.581903,360.0,-0.375,5.625,-0.06,-0.96,9.75,0.01,0.02,-0.17,0.0,0.0,-0.0033333333333333335,-14.875,-6.375,-45.875,28,-0.04937744140625,0.0032958984375,0.0,0.998779296875,360.0,-0.375,5.625
1563146638.620259,360.0,-0.375,5.625,-0.06,-0.96,9.75,0.0,0.01,-0.18,0.0,-0.0011111111111111111,-0.0022222222222222222,-14.5,-5.5625,-46.25,28,-0.04937744140625,0.0032958984375,0.0,0.998779296875,360.0,-0.375,5.625
1563146638.666074,360.0,-0.375,5.625,-0.06,-0.96,9.75,0.0,0.01,-0.17,-0.0011111111111111111,-0.0011111111111111111,0.0,-14.5,-5.5625,-46.25,28,-0.04937744140625,0.0032958984375,0.0,0.998779296875,360.0,-0.375,5.625
1563146638.710615,360.0,-0.375,5.625,-0.06,-0.96,9.75,0.0,0.01,-0.18,0.0011111111111111111,-0.0011111111111111111,0.0022222222222222222,-14.0625,-6.0,-45.375,28,-0.04937744140625,0.0032958984375,0.0,0.998779296875,360.0,-0.375,5.625
1563146638.753101,360.0,-0.375,5.625,-0.06,-0.96,9.75,0.0,0.01,-0.18,0.0011111111111111111,0.0011111111111111111,-0.0022222222222222222,-14.875,-5.25,-45.875,28,-0.04937744140625,0.0032958984375,0.0,0.998779296875,360.0,-0.375,5.625
1563146638.792766,360.0,-0.375,5.625,-0.06,-0.96,9.75,0.0,0.02,-0.16,0.0,-0.0022222222222222222,0.0,-14.5,-5.25,-47.0625,28,-0.04937744140625,0.0032958984375,0.0,0.998779296875,360.0,-0.375,5.625
1563146638.832807,360.0,-0.375,5.625,-0.06,-0.96,9.75,-0.01,0.01,-0.17,0.0011111111111111111,-0.0022222222222222222,-0.0022222222222222222,-15.25,-6.0,-47.0625,28,-0.04937744140625,0.0032958984375,0.0,0.998779296875,360.0,-0.375,5.625
1563146638.871209,360.0,-0.375,5.625,-0.06,-0.96,9.75,0.0,0.03,-0.14,0.0011111111111111111,0.0011111111111111111,0.0,-14.5,-6.0,-47.375,28,-0.04937744140625,0.0032958984375,0.0,0.998779296875,360.0,-0.375,5.625
1563146638.913153,360.0,-0.375,5.625,-0.06,-0.96,9.75,0.0,0.02,-0.15,0.0011111111111111111,-0.0011111111111111111,-0.0011111111111111111,-14.5,-6.0,-47.375,28,-0.04937744140625,0.0032958984375,0.0,0.998779296875,360.0,-0.375,5.625
1563146638.954055,360.0,-0.375,5.625,-0.06,-0.96,9.75,0.01,0.0,-0.14,0.0,0.0022222222222222222,0.0,-14.875,-6.0,-45.375,28,-0.04937744140625,0.0032958984375,0.0,0.998779296875,360.0,-0.375,5.625
1563146638.993526,360.0,-0.375,5.625,-0.06,-0.96,9.75,0.0,0.0,-0.17,0.0011111111111111111,0.0011111111111111111,-0.0011111111111111111,-14.875,-6.0,-46.25,28,-0.04937744140625,0.0032958984375,0.0,0.998779296875,360.0,-0.375,5.625
1563146639.031921,360.0,-0.375,5.625,-0.06,-0.96,9.75,0.0,0.01,-0.16,-0.0011111111111111111,0.0011111111111111111,0.0,-14.875,-5.5625,-45.375,28,-0.04937744140625,0.0032958984375,0.0,0.998779296875,360.0,-0.375,5.625
1563146639.071945,360.0,-0.375,5.625,-0.06,-0.96,9.75,0.01,0.01,-0.16,0.0022222222222222222,0.0,0.0,-14.0625,-5.25,-46.5625,28,-0.04937744140625,0.0032958984375,0.0,0.998779296875,360.0,-0.375,5.625
1563146639.114022,360.0,-0.375,5.625,-0.06,-0.96,9.75,0.0,0.03,-0.16,0.0,0.0,-0.0022222222222222222,-14.0625,-5.25,-46.5625,28,-0.04937744140625,0.0032958984375,0.0,0.998779296875,360.0,-0.375,5.625
1563146639.154821,360.0,-0.375,5.625,-0.06,-0.96,9.75,0.0,0.01,-0.17,0.0011111111111111111,0.0022222222222222222,-0.0033333333333333335,-14.5,-5.25,-45.875,28,-0.04937744140625,0.0032958984375,0.0,0.998779296875,360.0,-0.375,5.625
1563146639.19444,360.0,-0.375,5.625,-0.06,-0.96,9.75,0.0,0.01,-0.15,-0.0011111111111111111,0.0011111111111111111,-0.0011111111111111111,-13.75,-6.0,-45.0625,28,-0.04937744140625,0.0032958984375,0.0,0.998779296875,360.0,-0.375,5.625
1563146639.2346,360.0,-0.375,5.625,-0.06,-0.96,9.75,0.0,0.01,-0.2,0.0,-0.0033333333333333335,-0.0022222222222222222,-14.0625,-4.875,-46.5625,28,-0.04937744140625,0.0032958984375,0.0,0.998779296875,360.0,-0.375,5.625
1563146639.274517,360.0,-0.375,5.625,-0.06,-0.96,9.75,0.01,0.0,-0.15,-0.0022222222222222222,0.0011111111111111111,0.0,-13.0,-5.5625,-46.25,28,-0.04937744140625,0.0032958984375,0.0,0.998779296875,360.0,-0.375,5.625
1563146639.314656,360.0,-0.375,5.625,-0.06,-0.96,9.75,0.0,0.0,-0.17,0.0,0.0,0.0,-13.0,-5.5625,-46.25,28,-0.04937744140625,0.0032958984375,0.0,0.998779296875,360.0,-0.375,5.625
1563146639.356182,360.0,-0.375,5.625,-0.06,-0.96,9.75,0.0,0.0,-0.17,0.0,0.0011111111111111111,0.0,-14.5,-5.25,-46.25,28,-0.04937744140625,0.0032958984375,0.0,0.998779296875,360.0,-0.375,5.625
1563146639.395123,360.0,-0.375,5.625,-0.06,-0.96,9.75,0.0,0.01,-0.18,0.0,0.0022222222222222222,0.0,-14.875,-5.5625,-45.875,28,-0.04937744140625,0.0032958984375,0.0,0.998779296875,360.0,-0.375,5.625
1563146639.433503,360.0,-0.375,5.625,-0.06,-0.96,9.75,0.01,0.0,-0.15,0.0,0.0011111111111111111,0.0,-14.0625,-5.5625,-45.875,28,-0.04937744140625,0.0032958984375,0.0,0.998779296875,360.0,-0.375,5.625
1563146639.47356,360.0,-0.375,5.625,-0.06,-0.96,9.75,0.02,0.0,-0.17,0.0,-0.0011111111111111111,-0.0011111111111111111,-15.25,-5.5625,-47.375,28,-0.04937744140625,0.0032958984375,0.0,0.998779296875,360.0,-0.375,5.625
1563146639.517223,360.0,-0.375,5.625,-0.06,-0.96,9.75,0.0,0.0,-0.16,0.0011111111111111111,0.0,0.0022222222222222222,-15.25,-5.5625,-47.375,28,-0.04937744140625,0.0032958984375,0.0,0.998779296875,360.0,-0.375,5.625
1563146639.558174,360.0,-0.375,5.625,-0.06,-0.96,9.75,0.0,0.0,-0.16,-0.0011111111111111111,0.0033333333333333335,-0.0011111111111111111,-14.0625,-6.0,-45.875,28,-0.04937744140625,0.0032958984375,0.0,0.998779296875,360.0,-0.375,5.625
1563146639.597696,360.0,-0.375,5.625,-0.06,-0.96,9.75,0.0,0.01,-0.18,0.0011111111111111111,0.0011111111111111111,0.0011111111111111111,-14.5,-5.5625,-45.875,28,-0.04937744140625,0.0032958984375,0.0,0.998779296875,360.0,-0.375,5.625
1563146639.636179,360.0,-0.375,5.625,-0.06,-0.96,9.75,0.0,0.01,-0.18,0.0011111111111111111,0.0,0.0011111111111111111,-14.5,-5.25,-46.5625,28,-0.04937744140625,0.0032958984375,0.0,0.998779296875,360.0,-0.375,5.625
1563146639.674424,360.0,-0.375,5.625,-0.06,-0.96,9.75,0.0,0.01,-0.15,-0.0011111111111111111,0.0022222222222222222,0.0022222222222222222,-13.75,-5.5625,-47.375,28,-0.04937744140625,0.0032958984375,0.0,0.998779296875,360.0,-0.375,5.625
1563146639.718126,360.0,-0.375,5.625,-0.06,-0.96,9.75,-0.01,0.02,-0.16,0.0,-0.0011111111111111111,0.0011111111111111111,-13.75,-5.5625,-47.375,28,-0.04937744140625,0.0032958984375,0.0,0.998779296875,360.0,-0.375,5.625
1563146639.758944,360.0,-0.375,5.625,-0.06,-0.96,9.75,-0.01,0.02,-0.16,0.0011111111111111111,0.0011111111111111111,-0.0011111111111111111,-14.0625,-6.0,-46.5625,28,-0.04937744140625,0.0032958984375,0.0,0.998779296875,360.0,-0.375,5.625
1563146639.798498,360.0,-0.375,5.625,-0.06,-0.96,9.75,0.0,0.02,-0.15,0.0011111111111111111,-0.0044444444444444444,-0.0011111111111111111,-13.375,-5.25,-47.75,28,-0.04937744140625,0.0032958984375,0.0,0.998779296875,360.0,-0.375,5.625
1563146639.836959,360.0,-0.375,5.625,-0.06,-0.96,9.75,0.0,0.0,-0.19,-0.0011111111111111111,0.0,0.0011111111111111111,-14.875,-4.875,-46.25,28,-0.04937744140625,0.0032958984375,0.0,0.998779296875,360.0,-0.375,5.625
1563146639.877189,360.0,-0.375,5.625,-0.06,-0.96,9.75,0.0,0.03,-0.19,0.0022222222222222222,0.0,-0.0011111111111111111,-14.0625,-4.5,-47.0,28,-0.04937744140625,0.0032958984375,0.0,0.998779296875,360.0,-0.375,5.625
1563146639.921094,360.0,-0.375,5.625,-0.06,-0.96,9.75,0.01,0.0,-0.17,0.0,0.0,0.0011111111111111111,-14.0625,-5.25,-45.875,28,-0.04937744140625,0.0032958984375,0.0,0.998779296875,360.0,-0.375,5.625
1563146639.965678,360.0,-0.375,5.625,-0.06,-0.96,9.75,0.0,0.0,-0.18,0.0011111111111111111,0.0022222222222222222,-0.0011111111111111111,-14.0625,-5.25,-45.875,28,-0.04937744140625,0.0032958984375,0.0,0.998779296875,360.0,-0.375,5.625
1563146640.008227,360.0,-0.375,5.625,-0.06,-0.96,9.75,-0.02,0.02,-0.18,0.0011111111111111111,0.0011111111111111111,-0.0011111111111111111,-14.5,-5.5625,-47.0625,28,-0.04937744140625,0.0032958984375,0.0,0.998779296875,360.0,-0.375,5.625
1563146640.047793,360.0,-0.375,5.625,-0.06,-0.96,9.75,0.0,0.02,-0.17,0.0011111111111111111,0.0011111111111111111,0.0,-14.5,-6.0,-46.25,28,-0.04937744140625,0.0032958984375,0.0,0.998779296875,360.0,-0.375,5.625
1563146640.086189,360.0,-0.375,5.625,-0.06,-0.96,9.75,0.0,0.01,-0.17,0.0,-0.0011111111111111111,0.0,-14.5,-5.25,-45.375,28,-0.04937744140625,0.0032958984375,0.0,0.998779296875,360.0,-0.375,5.625
1563146640.126306,360.0,-0.375,5.625,-0.06,-0.96,9.75,0.0,0.01,-0.16,-0.0011111111111111111,0.0011111111111111111,0.0011111111111111111,-13.75,-5.25,-46.5625,28,-0.04937744140625,0.0032958984375,0.0,0.998779296875,360.0,-0.375,5.625
1563146640.168271,360.0,-0.375,5.625,-0.06,-0.96,9.75,-0.02,0.01,-0.16,0.0011111111111111111,-0.0011111111111111111,0.0,-13.75,-5.25,-46.5625,28,-0.04937744140625,0.0032958984375,0.0,0.998779296875,360.0,-0.375,5.625
1563146640.20911,360.0,-0.375,5.625,-0.06,-0.96,9.75,0.0,0.0,-0.14,0.0,0.0011111111111111111,0.0,-14.0625,-5.5625,-45.375,28,-0.04937744140625,0.0032958984375,0.0,0.998779296875,360.0,-0.375,5.625
1563146640.248854,360.0,-0.375,5.625,-0.06,-0.96,9.75,0.0,0.02,-0.18,0.0011111111111111111,0.0,0.0,-14.875,-5.25,-45.875,28,-0.04937744140625,0.0032958984375,0.0,0.998779296875,360.0,-0.375,5.625
1563146640.288557,360.0,-0.375,5.625,-0.06,-0.96,9.75,0.01,0.0,-0.18,0.0011111111111111111,0.0022222222222222222,0.0022222222222222222,-14.5,-5.5625,-47.0,28,-0.04937744140625,0.0032958984375,0.0,0.998779296875,360.0,-0.375,5.625
1563146640.327118,360.0,-0.375,5.625,-0.06,-0.96,9.75,0.0,0.0,-0.17,-0.0011111111111111111,0.0011111111111111111,0.0,-14.5,-5.25,-47.375,28,-0.04937744140625,0.0032958984375,0.0,0.998779296875,360.0,-0.375,5.625
1563146640.370822,360.0,-0.375,5.625,-0.06,-0.96,9.75,0.0,0.01,-0.16,0.0,-0.0011111111111111111,0.0011111111111111111,-14.5,-5.25,-47.375,28,-0.04937744140625,0.0032958984375,0.0,0.998779296875,360.0,-0.375,5.625
1563146640.412791,360.0,-0.375,5.625,-0.06,-0.96,9.75,0.0,0.01,-0.14,0.0022222222222222222,-0.0011111111111111111,0.0011111111111111111,-14.0625,-5.5625,-45.5,28,-0.04937744140625,0.0032958984375,0.0,0.998779296875,360.0,-0.375,5.625
1563146640.451191,360.0,-0.375,5.625,-0.06,-0.96,9.75,0.0,0.01,-0.15,-0.0011111111111111111,-0.0011111111111111111,0.0011111111111111111,-15.25,-5.25,-45.875,28,-0.04937744140625,0.0032958984375,0.0,0.998779296875,360.0,-0.375,5.625
1563146640.489531,360.0,-0.375,5.625,-0.06,-0.96,9.75,-0.02,0.01,-0.22,0.0011111111111111111,0.0022222222222222222,0.0,-15.25,-5.25,-45.875,28,-0.04937744140625,0.0032958984375,0.0,0.998779296875,360.0,-0.375,5.625
1563146640.527787,360.0,-0.375,5.625,-0.06,-0.96,9.75,0.0,0.02,-0.16,0.0011111111111111111,0.0,-0.0011111111111111111,-13.375,-5.25,-46.25,28,-0.04937744140625,0.0032958984375,0.0,0.998779296875,360.0,-0.375,5.625
1563146640.567979,360.0,-0.375,5.625,-0.06,-0.96,9.75,0.0,0.01,-0.17,-0.0011111111111111111,0.0011111111111111111,-0.0011111111111111111,-13.375,-5.25,-46.25,28,-0.04937744140625,0.0032958984375,0.0,0.998779296875,360.0,-0.375,5.625
1563146640.610732,360.0,-0.375,5.625,-0.06,-0.96,9.75,0.01,0.0,-0.19,0.0022222222222222222,0.0011111111111111111,0.0011111111111111111,-14.875,-6.0,-45.375,28,-0.04937744140625,0.0032958984375,0.0,0.998779296875,360.0,-0.375,5.625
1563146640.652508,360.0,-0.375,5.625,-0.06,-0.96,9.75,0.0,0.0,-0.18,0.0011111111111111111,0.0022222222222222222,-0.0022222222222222222,-14.5,-5.5625,-45.5,28,-0.04937744140625,0.0032958984375,0.0,0.998779296875,360.0,-0.375,5.625
1563146640.692087,360.0,-0.375,5.625,-0.06,-0.96,9.75,0.0,0.02,-0.19,0.0,-0.0022222222222222222,-0.0011111111111111111,-14.0625,-5.25,-45.875,28,-0.04937744140625,0.0032958984375,0.0,0.998779296875,360.0,-0.375,5.625
1563146640.730496,360.0,-0.375,5.625,-0.06,-0.96,9.75,0.01,0.0,-0.2,0.0,0.0022222222222222222,0.0033333333333333335,-14.0625,-6.0,-47.0,28,-0.04937744140625,0.0032958984375,0.0,0.998779296875,360.0,-0.375,5.625
1563146640.770691,360.0,-0.375,5.625,-0.06,-0.96,9.75,0.0,0.01,-0.18,0.0,0.0011111111111111111,0.0011111111111111111,-14.0625,-6.0,-47.0,28,-0.04937744140625,0.0032958984375,0.0,0.998779296875,360.0,-0.375,5.625
1563146640.81194,360.0,-0.375,5.625,-0.06,-0.96,9.75,-0.01,0.0,-0.2,-0.0011111111111111111,0.0011111111111111111,0.0011111111111111111,-14.875,-5.25,-45.875,28,-0.04937744140625,0.0032958984375,0.0,0.998779296875,360.0,-0.375,5.625
1563146640.850982,360.0,-0.375,5.625,-0.06,-0.96,9.75,0.02,0.0,-0.17,0.0011111111111111111,-0.0011111111111111111,0.0011111111111111111,-14.0625,-4.875,-46.5625,28,-0.04937744140625,0.0032958984375,0.0,0.998779296875,360.0,-0.375,5.625
1563146640.889457,360.0,-0.375,5.625,-0.06,-0.96,9.75,0.0,0.02,-0.16,0.0011111111111111111,0.0011111111111111111,-0.0011111111111111111,-14.5,-6.0,-46.5625,28,-0.04937744140625,0.0032958984375,0.0,0.998779296875,360.0,-0.375,5.625
1563146640.929546,360.0,-0.375,5.625,-0.06,-0.96,9.75,0.02,0.01,-0.14,0.0022222222222222222,0.0011111111111111111,0.0022222222222222222,-14.875,-6.0,-46.25,28,-0.04937744140625,0.0032958984375,0.0,0.998779296875,360.0,-0.375,5.625
1563146640.971501,360.0,-0.375,5.625,-0.06,-0.96,9.75,-0.01,0.04,-0.17,0.0,0.0022222222222222222,-0.0011111111111111111,-14.875,-6.0,-46.25,28,-0.04937744140625,0.0032958984375,0.0,0.998779296875,360.0,-0.375,5.625
1563146641.020171,360.0,-0.375,5.625,-0.06,-0.96,9.75,-0.02,0.0,-0.16,0.0011111111111111111,0.0,0.0,-13.75,-5.5625,-45.0625,28,-0.04937744140625,0.0032958984375,0.0,0.998779296875,360.0,-0.375,5.625
1563146641.062733,360.0,-0.375,5.625,-0.06,-0.96,9.75,0.0,0.01,-0.2,0.0,0.0,0.0,-13.375,-5.25,-46.5625,28,-0.04937744140625,0.0032958984375,0.0,0.998779296875,360.0,-0.375,5.625
1563146641.10195,360.0,-0.375,5.625,-0.06,-0.96,9.75,0.0,0.0,-0.18,0.0,0.0022222222222222222,-0.0011111111111111111,-14.5,-5.5625,-46.25,28,-0.04937744140625,0.0032958984375,0.0,0.998779296875,360.0,-0.375,5.625
1563146641.140392,360.0,-0.375,5.625,-0.06,-0.96,9.75,0.0,0.02,-0.2,0.0,0.0033333333333333335,-0.0011111111111111111,-14.0625,-5.5625,-45.875,28,-0.04937744140625,0.0032958984375,0.0,0.998779296875,360.0,-0.375,5.625
1563146641.180315,360.0,-0.375,5.625,-0.06,-0.96,9.75,0.0,0.0,-0.15,0.0,0.0,0.0011111111111111111,-14.0625,-5.5625,-46.5625,28,-0.04937744140625,0.0032958984375,0.0,0.998779296875,360.0,-0.375,5.625
1563146641.224215,360.0,-0.375,5.625,-0.06,-0.96,9.75,0.0,0.02,-0.14,-0.0011111111111111111,0.0033333333333333335,0.0011111111111111111,-14.0625,-5.5625,-46.5625,28,-0.04937744140625,0.0032958984375,0.0,0.998779296875,360.0,-0.375,5.625
1563146641.265078,360.0,-0.375,5.625,-0.06,-0.96,9.75,0.01,0.02,-0.17,-0.0011111111111111111,0.0011111111111111111,0.0,-13.75,-6.0,-45.875,28,-0.04937744140625,0.0032958984375,0.0,0.998779296875,360.0,-0.375,5.625
1563146641.304645,360.0,-0.375,5.625,-0.06,-0.96,9.75,0.0,0.02,-0.18,-0.0011111111111111111,0.0033333333333333335,-0.0022222222222222222,-14.0625,-4.875,-46.5625,28,-0.04937744140625,0.0032958984375,0.0,0.998779296875,360.0,-0.375,5.625
1563146641.342833,360.0,-0.375,5.625,-0.06,-0.96,9.75,0.0,0.01,-0.19,0.0,0.0044444444444444444,-0.0033333333333333335,-13.75,-5.25,-45.875,28,-0.04937744140625,0.0032958984375,0.0,0.998779296875,360.0,-0.375,5.625
1563146641.381174,360.0,-0.375,5.625,-0.06,-0.96,9.75,0.0,0.03,-0.18,0.0,0.0022222222222222222,0.0,-14.0625,-6.75,-46.25,28,-0.04937744140625,0.0032958984375,0.0,0.998779296875,360.0,-0.375,5.625
1563146641.425035,360.0,-0.375,5.625,-0.06,-0.96,9.75,0.0,0.01,-0.16,0.0011111111111111111,0.0011111111111111111,-0.0033333333333333335,-14.0625,-6.75,-46.25,28,-0.04937744140625,0.0032958984375,0.0,0.998779296875,360.0,-0.375,5.625
1563146641.471868,360.0,-0.375,5.625,-0.06,-0.96,9.75,0.0,0.0,-0.15,-0.0011111111111111111,-0.0044444444444444444,0.0033333333333333335,-13.75,-5.5625,-45.0625,28,-0.04937744140625,0.0032958984375,0.0,0.998779296875,360.0,-0.375,5.625
1563146641.514378,360.0,-0.375,5.625,-0.06,-0.96,9.75,0.02,0.0,-0.17,0.0011111111111111111,0.0,0.0011111111111111111,-14.5,-5.5625,-46.5625,28,-0.04937744140625,0.0032958984375,0.0,0.998779296875,360.0,-0.375,5.625
1563146641.553763,360.0,-0.375,5.625,-0.06,-0.96,9.75,0.0,0.0,-0.18,0.0011111111111111111,-0.0022222222222222222,0.0011111111111111111,-14.5,-6.375,-45.875,28,-0.04937744140625,0.0032958984375,0.0,0.998779296875,360.0,-0.375,5.625
1563146641.592034,360.0,-0.375,5.625,-0.06,-0.96,9.75,0.01,0.0,-0.18,0.0,0.0011111111111111111,0.0022222222222222222,-14.0625,-6.0,-45.875,28,-0.04937744140625,0.0032958984375,0.0,0.998779296875,360.0,-0.375,5.625
1563146641.632261,360.0,-0.375,5.625,-0.06,-0.96,9.75,0.0,0.0,-0.2,0.0,0.0022222222222222222,-0.0011111111111111111,-14.875,-5.5625,-46.25,28,-0.04937744140625,0.0032958984375,0.0,0.998779296875,360.0,-0.375,5.625
1563146641.674186,360.0,-0.375,5.625,-0.06,-0.96,9.75,0.0,0.0,-0.16,-0.0011111111111111111,0.0022222222222222222,0.0,-14.875,-5.5625,-46.25,28,-0.04937744140625,0.0032958984375,0.0,0.998779296875,360.0,-0.375,5.625
1563146641.715123,360.0,-0.375,5.625,-0.06,-0.96,9.75,0.0,0.0,-0.17,0.0011111111111111111,-0.0022222222222222222,0.0011111111111111111,-14.875,-5.5625,-46.6875,28,-0.04937744140625,0.0032958984375,0.0,0.998779296875,360.0,-0.375,5.625
1563146641.754734,360.0,-0.375,5.625,-0.06,-0.96,9.75,-0.01,0.02,-0.15,0.0011111111111111111,0.0,-0.0011111111111111111,-15.5625,-5.25,-46.25,28,-0.04937744140625,0.0032958984375,0.0,0.998779296875,360.0,-0.375,5.625
1563146641.793018,360.0,-0.375,5.625,-0.06,-0.96,9.75,-0.01,-0.01,-0.16,0.0,0.0,0.0,-14.0625,-6.0,-46.6875,28,-0.04937744140625,0.0032958984375,0.0,0.998779296875,360.0,-0.375,5.625
1563146641.833233,360.0,-0.375,5.625,-0.06,-0.96,9.75,0.0,0.01,-0.15,-0.0011111111111111111,-0.0033333333333333335,0.0011111111111111111,-14.5,-5.5625,-45.5,28,-0.04937744140625,0.0032958984375,0.0,0.998779296875,360.0,-0.375,5.625
1563146641.876838,360.0,-0.375,5.625,-0.06,-0.96,9.75,0.0,0.0,-0.15,0.0022222222222222222,-0.0022222222222222222,-0.0011111111111111111,-14.5,-5.5625,-45.5,28,-0.04937744140625,0.0032958984375,0.0,0.998779296875,360.0,-0.375,5.625
1563146641.917682,360.0,-0.375,5.625,-0.06,-0.96,9.75,0.01,0.0,-0.16,-0.0011111111111111111,0.0022222222222222222,0.0022222222222222222,-14.875,-4.875,-47.0,28,-0.04937744140625,0.0032958984375,0.0,0.998779296875,360.0,-0.375,5.625
1563146641.957047,360.0,-0.375,5.625,-0.06,-0.96,9.75,0.0,0.0,-0.16,0.0,-0.0011111111111111111,0.0011111111111111111,-13.75,-5.5625,-46.25,28,-0.04937744140625,0.0032958984375,0.0,0.998779296875,360.0,-0.375,5.625
1563146641.995521,360.0,-0.375,5.625,-0.06,-0.96,9.75,0.0,0.0,-0.19,0.0011111111111111111,0.0,0.0,-14.0625,-5.5625,-45.875,28,-0.04937744140625,0.0032958984375,0.0,0.998779296875,360.0,-0.375,5.625
1563146642.033891,360.0,-0.375,5.625,-0.06,-0.96,9.75,0.0,0.03,-0.16,0.0,0.0,0.0,-14.875,-5.5625,-46.5625,28,-0.04937744140625,0.0032958984375,0.0,0.998779296875,360.0,-0.375,5.625
1563146642.0758,360.0,-0.375,5.625,-0.06,-0.96,9.75,0.0,0.03,-0.17,-0.0011111111111111111,0.0,-0.0011111111111111111,-14.875,-5.5625,-46.5625,28,-0.04937744140625,0.0032958984375,0.0,0.998779296875,360.0,-0.375,5.625
1563146642.117048,360.0,-0.375,5.625,-0.06,-0.96,9.75,0.0,0.0,-0.2,-0.0011111111111111111,0.0022222222222222222,-0.0011111111111111111,-14.5,-6.375,-47.0625,28,-0.04937744140625,0.0032958984375,0.0,0.998779296875,360.0,-0.375,5.625
1563146642.15617,360.0,-0.375,5.625,-0.06,-0.96,9.75,0.0,0.0,-0.18,0.0011111111111111111,0.0011111111111111111,0.0011111111111111111,-14.0625,-6.375,-46.25,28,-0.04937744140625,0.0032958984375,0.0,0.998779296875,360.0,-0.375,5.625
1563146642.194571,360.0,-0.375,5.625,-0.06,-0.96,9.75,0.0,0.01,-0.17,0.0,0.0044444444444444444,0.0011111111111111111,-14.875,-5.5625,-46.5625,28,-0.04937744140625,0.0032958984375,0.0,0.998779296875,360.0,-0.375,5.625
1563146642.23825,360.0,-0.375,5.625,-0.06,-0.96,9.75,0.0,0.0,-0.19,0.0011111111111111111,0.0,0.0011111111111111111,-14.875,-4.875,-45.875,28,-0.04937744140625,0.0032958984375,0.0,0.998779296875,360.0,-0.375,5.625
1563146642.284999,360.0,-0.375,5.625,-0.06,-0.96,9.75,0.0,0.01,-0.17,0.0,0.0,0.0,-14.875,-6.375,-45.5,28,-0.04937744140625,0.0032958984375,0.0,0.998779296875,360.0,-0.375,5.625
1563146642.327058,360.0,-0.375,5.625,-0.06,-0.96,9.75,0.0,0.01,-0.17,0.0,0.0022222222222222222,-0.0022222222222222222,-14.875,-6.375,-45.5,28,-0.04937744140625,0.0032958984375,0.0,0.998779296875,360.0,-0.375,5.625
1563146642.368286,360.0,-0.375,5.625,-0.06,-0.96,9.75,0.0,0.03,-0.18,0.0,0.0,0.0,-14.0625,-5.5625,-46.25,28,-0.04937744140625,0.0032958984375,0.0,0.998779296875,360.0,-0.375,5.625
1563146642.407308,360.0,-0.375,5.625,-0.06,-0.96,9.75,0.02,0.01,-0.16,0.0011111111111111111,-0.0011111111111111111,0.0022222222222222222,-14.875,-5.25,-45.875,28,-0.04937744140625,0.0032958984375,0.0,0.998779296875,360.0,-0.375,5.625
1563146642.445591,360.0,-0.375,5.625,-0.06,-0.96,9.75,0.0,0.02,-0.16,0.0011111111111111111,0.0011111111111111111,0.0,-14.5,-5.25,-45.5,28,-0.04937744140625,0.0032958984375,0.0,0.998779296875,360.0,-0.375,5.625
1563146642.485581,360.0,-0.375,5.625,-0.06,-0.96,9.75,0.01,0.0,-0.17,0.0,-0.0022222222222222222,0.0011111111111111111,-14.0625,-5.5625,-45.875,28,-0.04937744140625,0.0032958984375,0.0,0.998779296875,360.0,-0.375,5.625
1563146642.527736,360.0,-0.375,5.625,-0.06,-0.96,9.75,0.0,0.0,-0.17,0.0,-0.0022222222222222222,0.0011111111111111111,-14.0625,-5.5625,-45.875,28,-0.04937744140625,0.0032958984375,0.0,0.998779296875,360.0,-0.375,5.625
1563146642.568528,360.0,-0.375,5.625,-0.06,-0.96,9.75,0.0,0.0,-0.18,-0.0011111111111111111,-0.0011111111111111111,0.0,-14.875,-5.5625,-45.875,28,-0.04937744140625,0.0032958984375,0.0,0.998779296875,360.0,-0.375,5.625
1563146642.608185,360.0,-0.375,5.625,-0.06,-0.96,9.75,0.0,0.0,-0.2,0.0,-0.0011111111111111111,0.0011111111111111111,-14.5,-6.0,-45.5,28,-0.04937744140625,0.0032958984375,0.0,0.998779296875,360.0,-0.375,5.625
1563146642.646484,360.0,-0.375,5.625,-0.06,-0.96,9.75,0.01,0.01,-0.17,0.0011111111111111111,-0.0022222222222222222,0.0,-14.0625,-5.5625,-47.0625,28,-0.04937744140625,0.0032958984375,0.0,0.998779296875,360.0,-0.375,5.625
1563146642.686385,360.0,-0.375,5.625,-0.06,-0.96,9.75,0.0,0.02,-0.17,0.0,0.0,0.0,-14.0625,-5.5625,-47.0625,28,-0.04937744140625,0.0032958984375,0.0,0.998779296875,360.0,-0.375,5.625
1563146642.728559,360.0,-0.375,5.625,-0.06,-0.96,9.75,0.02,0.01,-0.15,0.0011111111111111111,0.0011111111111111111,-0.0011111111111111111,-14.0625,-5.5625,-47.0625,28,-0.04937744140625,0.0032958984375,0.0,0.998779296875,360.0,-0.375,5.625
1563146642.771207,360.0,-0.375,5.625,-0.06,-0.96,9.75,-0.01,0.0,-0.19,0.0011111111111111111,-0.0022222222222222222,0.0011111111111111111,-14.875,-6.0,-45.875,28,-0.04937744140625,0.0032958984375,0.0,0.998779296875,360.0,-0.375,5.625
1563146642.810829,360.0,-0.375,5.625,-0.06,-0.96,9.75,0.01,0.0,-0.18,0.0,0.0022222222222222222,0.0011111111111111111,-14.5,-5.5625,-46.25,28,-0.04937744140625,0.0032958984375,0.0,0.998779296875,360.0,-0.375,5.625
1563146642.848975,360.0,-0.375,5.625,-0.06,-0.96,9.75,0.01,0.02,-0.19,0.0,0.0022222222222222222,0.0011111111111111111,-14.5,-5.5625,-45.875,28,-0.04937744140625,0.0032958984375,0.0,0.998779296875,360.0,-0.375,5.625
1563146642.887272,360.0,-0.375,5.625,-0.06,-0.96,9.75,-0.01,0.01,-0.19,0.0011111111111111111,0.0,-0.0011111111111111111,-14.0625,-5.25,-47.0625,28,-0.04937744140625,0.0032958984375,0.0,0.998779296875,360.0,-0.375,5.625
1563146642.929296,360.0,-0.375,5.625,-0.06,-0.96,9.75,-0.01,0.0,-0.13,0.0011111111111111111,0.0011111111111111111,0.0,-14.0625,-5.25,-47.0625,28,-0.04937744140625,0.0032958984375,0.0,0.998779296875,360.0,-0.375,5.625
1563146642.970255,360.0,-0.375,5.625,-0.06,-0.96,9.75,0.0,0.03,-0.16,0.0011111111111111111,-0.005555555555555556,-0.0011111111111111111,-13.75,-5.25,-47.0625,28,-0.04937744140625,0.0032958984375,0.0,0.998779296875,360.0,-0.375,5.625
1563146643.00967,360.0,-0.375,5.625,-0.06,-0.96,9.75,0.0,0.0,-0.15,0.0,0.0011111111111111111,0.0,-14.875,-6.0,-45.875,28,-0.04937744140625,0.0032958984375,0.0,0.998779296875,360.0,-0.375,5.625
1563146643.048167,360.0,-0.375,5.625,-0.06,-0.96,9.75,0.02,0.0,-0.17,-0.0011111111111111111,0.0011111111111111111,0.0,-14.5,-5.5625,-45.875,28,-0.04937744140625,0.0032958984375,0.0,0.998779296875,360.0,-0.375,5.625
1563146643.088184,360.0,-0.375,5.625,-0.06,-0.96,9.75,0.0,0.01,-0.17,-0.0011111111111111111,-0.0022222222222222222,0.0011111111111111111,-14.875,-5.5625,-46.25,28,-0.04937744140625,0.0032958984375,0.0,0.998779296875,360.0,-0.375,5.625
1563146643.130098,360.0,-0.375,5.625,-0.06,-0.96,9.75,0.0,0.0,-0.18,0.0,-0.0022222222222222222,0.0011111111111111111,-14.875,-5.5625,-46.25,28,-0.04937744140625,0.0032958984375,0.0,0.998779296875,360.0,-0.375,5.625
1563146643.170974,360.0,-0.375,5.625,-0.06,-0.96,9.75,0.0,0.01,-0.22,0.0,-0.0011111111111111111,0.0011111111111111111,-13.75,-5.25,-46.25,28,-0.04937744140625,0.0032958984375,0.0,0.998779296875,360.0,-0.375,5.625
1563146643.210604,360.0,-0.375,5.625,-0.06,-0.96,9.75,0.0,0.0,-0.17,0.0011111111111111111,0.0,0.0,-12.5625,-6.375,-46.25,28,-0.04937744140625,0.0032958984375,0.0,0.998779296875,360.0,-0.375,5.625
1563146643.248929,360.0,-0.375,5.625,-0.06,-0.96,9.75,-0.01,0.01,-0.19,0.0011111111111111111,-0.0011111111111111111,0.0,-14.875,-5.25,-46.6875,28,-0.04937744140625,0.0032958984375,0.0,0.998779296875,360.0,-0.375,5.625
1563146643.288974,360.0,-0.375,5.625,-0.06,-0.96,9.75,-0.01,0.01,-0.15,0.0,-0.0022222222222222222,-0.0011111111111111111,-14.0625,-6.0,-47.0625,28,-0.04937744140625,0.0032958984375,0.0,0.998779296875,360.0,-0.375,5.625
1563146643.331038,360.0,-0.375,5.625,-0.06,-0.96,9.75,0.0,0.03,-0.12,0.0,0.0011111111111111111,0.0,-14.0625,-6.0,-47.0625,28,-0.04937744140625,0.0032958984375,0.0,0.998779296875,360.0,-0.375,5.625
1563146643.372353,360.0,-0.375,5.625,-0.06,-0.96,9.75,0.01,0.0,-0.15,0.0011111111111111111,0.0,-0.0022222222222222222,-14.5,-5.25,-45.0625,28,-0.04937744140625,0.0032958984375,0.0,0.998779296875,360.0,-0.375,5.625
1563146643.411242,360.0,-0.375,5.625,-0.06,-0.96,9.75,-0.01,0.01,-0.17,0.0,-0.0011111111111111111,0.0,-13.75,-6.0,-45.0625,28,-0.04937744140625,0.0032958984375,0.0,0.998779296875,360.0,-0.375,5.625
1563146643.44952,360.0,-0.375,5.625,-0.06,-0.96,9.75,0.01,0.02,-0.15,0.0,0.0033333333333333335,0.0011111111111111111,-14.0625,-5.25,-46.6875,28,-0.04937744140625,0.0032958984375,0.0,0.998779296875,360.0,-0.375,5.625
1563146643.489589,360.0,-0.375,5.625,-0.06,-0.96,9.75,0.0,0.01,-0.17,-0.0022222222222222222,0.0022222222222222222,0.0,-15.25,-5.25,-47.0625,28,-0.04937744140625,0.0032958984375,0.0,0.998779296875,360.0,-0.375,5.625
1563146643.531757,360.0,-0.375,5.625,-0.06,-0.96,9.75,-0.01,0.02,-0.16,-0.0011111111111111111,0.0033333333333333335,0.0,-15.25,-5.25,-47.0625,28,-0.04937744140625,0.0032958984375,0.0,0.998779296875,360.0,-0.375,5.625
1563146643.572584,360.0,-0.375,5.625,-0.06,-0.96,9.75,0.0,0.02,-0.19,-0.0022222222222222222,0.0022222222222222222,-0.0022222222222222222,-14.0625,-5.25,-46.6875,28,-0.04937744140625,0.0032958984375,0.0,0.998779296875,360.0,-0.375,5.625
1563146643.612255,360.0,-0.375,5.625,-0.06,-0.96,9.75,0.0,0.01,-0.16,0.0011111111111111111,0.0011111111111111111,-0.0011111111111111111,-14.5,-5.25,-47.0625,28,-0.04937744140625,0.0032958984375,0.0,0.998779296875,360.0,-0.375,5.625
1563146643.650557,360.0,-0.375,5.625,-0.06,-0.96,9.75,0.0,0.0,-0.14,-0.0011111111111111111,0.0011111111111111111,-0.0011111111111111111,-14.875,-4.875,-46.25,28,-0.04937744140625,0.0032958984375,0.0,0.998779296875,360.0,-0.375,5.625
1563146643.690617,360.0,-0.375,5.625,-0.06,-0.96,9.75,0.0,0.01,-0.15,0.0,0.0011111111111111111,0.0011111111111111111,-14.5,-5.25,-45.5,28,-0.04937744140625,0.0032958984375,0.0,0.998779296875,360.0,-0.375,5.625
1563146643.732751,360.0,-0.375,5.625,-0.06,-0.96,9.75,0.0,0.02,-0.13,-0.0011111111111111111,0.0011111111111111111,-0.0022222222222222222,-14.5,-5.25,-45.5,28,-0.04937744140625,0.0032958984375,0.0,0.998779296875,360.0,-0.375,5.625
1563146643.77534,360.0,-0.375,5.625,-0.06,-0.96,9.75,-0.01,0.03,-0.13,0.0011111111111111111,0.0,0.0011111111111111111,-14.875,-5.25,-46.25,28,-0.04937744140625,0.0032958984375,0.0,0.998779296875,360.0,-0.375,5.625
1563146643.814948,360.0,-0.375,5.625,-0.06,-0.96,9.75,0.0,0.0,-0.15,-0.0022222222222222222,0.0011111111111111111,-0.0022222222222222222,-13.375,-5.5625,-45.5,28,-0.04937744140625,0.0032958984375,0.0,0.998779296875,360.0,-0.375,5.625
1563146643.853152,360.0,-0.375,5.625,-0.06,-0.96,9.75,-0.01,0.0,-0.18,-0.0022222222222222222,-0.0011111111111111111,-0.0011111111111111111,-14.0625,-5.5625,-46.6875,28,-0.04937744140625,0.0032958984375,0.0,0.998779296875,360.0,-0.375,5.625
