"time in sec since January 1, 1970, 00:00:00 (UTC)",heading (degrees),roll (degrees),pitch (degrees),Gx (m/s2),Gy (m/s2),Gz (m/s2),ax (m/s2),ay (m/s2),az (m/s2),gyroscope x (deg/sec),gyroscope y (deg/sec),gyroscope z (deg/sec),magnetometer x (micro-Teslas),magnetometer y (micro-Teslas),magnetometer z (micro-Teslas),temperature celcius,quaternion x,quaternion y,quaternion z,quaternion w,heading (deg),roll (deg),pitch (deg)
1563493164.391368,360.0,-0.5625,5.9375,-0.09,-1.02,9.75,0.0,0.02,-0.16,-0.0011111111111111111,0.005555555555555556,-0.0033333333333333335,-16.75,-14.5625,-38.0625,35,-0.0521240234375,0.00494384765625,0.0,0.9986572265625,360.0,-0.5625,5.9375
1563493164.43026,360.0,-0.5625,5.9375,-0.09,-1.02,9.75,0.02,0.01,-0.12,-0.0033333333333333335,0.005555555555555556,0.0,-17.1875,-14.25,-36.875,35,-0.0521240234375,0.00494384765625,0.0,0.9986572265625,360.0,-0.5625,5.9375
1563493164.470557,0.0,-0.5625,5.9375,-0.09,-1.02,9.75,0.0,0.01,-0.14,-0.0044444444444444444,0.0022222222222222222,0.0011111111111111111,-17.1875,-14.25,-36.875,35,-0.0521240234375,0.00494384765625,0.0,0.9986572265625,0.0,-0.5625,5.9375
1563493164.509136,0.0,-0.5625,5.9375,-0.09,-1.02,9.75,0.02,0.02,-0.16,-0.0033333333333333335,0.0,0.0011111111111111111,-16.75,-14.25,-36.5,35,-0.0521240234375,0.00494384765625,0.0,0.9986572265625,0.0,-0.5625,5.9375
1563493164.548015,0.0,-0.5625,5.9375,-0.09,-1.02,9.75,0.0,0.02,-0.18,-0.0033333333333333335,0.0033333333333333335,0.0022222222222222222,-16.0625,-15.75,-36.0625,35,-0.0521240234375,0.00494384765625,0.0,0.9986572265625,0.0,-0.5625,5.9375
1563493164.586726,360.0,-0.5625,5.9375,-0.09,-1.02,9.75,-0.01,0.01,-0.14,-0.0022222222222222222,0.0,0.0,-16.0625,-14.5625,-37.75,35,-0.0521240234375,0.00494384765625,0.0,0.9986572265625,360.0,-0.5625,5.9375
1563493164.626442,360.0,-0.5625,5.9375,-0.09,-1.02,9.75,0.0,0.02,-0.16,-0.0022222222222222222,0.0044444444444444444,0.0,-16.0625,-14.5625,-37.75,35,-0.0521240234375,0.00494384765625,0.0,0.9986572265625,360.0,-0.5625,5.9375
1563493164.66121,360.0,-0.5625,5.9375,-0.09,-1.02,9.75,0.0,0.02,-0.15,-0.0022222222222222222,0.0044444444444444444,0.0,-16.375,-15.375,-36.5625,35,-0.0521240234375,0.00494384765625,0.0,0.9986572265625,360.0,-0.5625,5.9375
1563493164.70018,360.0,-0.5625,5.9375,-0.09,-1.02,9.75,-0.01,0.01,-0.18,-0.0033333333333333335,0.0044444444444444444,-0.0011111111111111111,-17.1875,-14.25,-36.5,35,-0.0521240234375,0.00494384765625,0.0,0.9986572265625,360.0,-0.5625,5.9375
1563493164.738517,360.0,-0.5625,5.9375,-0.09,-1.02,9.75,0.0,0.01,-0.14,-0.0033333333333333335,0.0022222222222222222,0.0022222222222222222,-17.1875,-15.75,-36.875,35,-0.0521240234375,0.00494384765625,0.0,0.9986572265625,360.0,-0.5625,5.9375
1563493164.778682,359.9375,-0.5625,5.9375,-0.09,-1.02,9.75,-0.01,0.01,-0.16,-0.0022222222222222222,0.0022222222222222222,0.0,-17.1875,-15.75,-36.875,35,-0.0521240234375,0.00494384765625,0.0,0.9986572265625,359.9375,-0.5625,5.9375
1563493164.819683,359.9375,-0.5625,5.9375,-0.09,-1.02,9.75,0.0,0.01,-0.18,-0.0033333333333333335,0.0,0.0011111111111111111,-16.0625,-14.5625,-36.875,35,-0.0521240234375,0.00494384765625,0.0,0.9986572265625,359.9375,-0.5625,5.9375
1563493164.85748,359.9375,-0.5625,5.9375,-0.09,-1.02,9.75,0.01,0.01,-0.17,-0.0022222222222222222,0.0044444444444444444,0.0,-16.75,-14.5625,-36.875,35,-0.0521240234375,0.00494384765625,0.0,0.9986572265625,359.9375,-0.5625,5.9375
1563493164.892147,359.9375,-0.5625,5.9375,-0.09,-1.02,9.75,0.0,0.01,-0.18,0.0,0.0022222222222222222,0.0,-16.75,-15.375,-36.5,35,-0.0521240234375,0.00494384765625,0.0,0.9986572265625,359.9375,-0.5625,5.9375
1563493164.937795,359.9375,-0.5625,5.9375,-0.09,-1.02,9.75,-0.02,0.02,-0.18,-0.0011111111111111111,0.0,0.0,-16.75,-14.25,-36.5625,35,-0.0521240234375,0.00494384765625,0.0,0.9986572265625,359.9375,-0.5625,5.9375
1563493164.978015,359.9375,-0.5625,5.9375,-0.09,-1.02,9.75,-0.02,0.01,-0.15,0.0011111111111111111,0.0022222222222222222,0.0011111111111111111,-16.75,-14.25,-36.5625,35,-0.0521240234375,0.00494384765625,0.0,0.9986572265625,359.9375,-0.5625,5.9375
1563493165.012877,359.9375,-0.5625,5.9375,-0.09,-1.02,9.75,0.0,0.03,-0.15,0.0,0.0011111111111111111,0.0,-16.75,-15.0,-36.0625,35,-0.0521240234375,0.00494384765625,0.0,0.9986572265625,359.9375,-0.5625,5.9375
1563493165.051374,359.9375,-0.5625,5.9375,-0.09,-1.02,9.75,0.0,0.04,-0.18,-0.0011111111111111111,0.0011111111111111111,-0.0011111111111111111,-16.75,-15.375,-37.375,35,-0.0521240234375,0.00494384765625,0.0,0.9986572265625,359.9375,-0.5625,5.9375
1563493165.089995,359.9375,-0.5625,5.9375,-0.09,-1.02,9.75,0.0,0.01,-0.14,-0.0011111111111111111,0.0,0.0,-16.75,-15.0,-36.875,35,-0.0521240234375,0.00494384765625,0.0,0.9986572265625,359.9375,-0.5625,5.9375
1563493165.132525,359.9375,-0.5625,5.9375,-0.09,-1.02,9.75,-0.01,0.02,-0.15,0.0011111111111111111,-0.0011111111111111111,0.0011111111111111111,-16.75,-15.0,-36.875,35,-0.0521240234375,0.00494384765625,0.0,0.9986572265625,359.9375,-0.5625,5.9375
1563493165.180862,359.9375,-0.5625,5.9375,-0.09,-1.02,9.75,0.0,0.03,-0.16,-0.0011111111111111111,0.0033333333333333335,0.0,-16.75,-14.5625,-36.5625,35,-0.0521240234375,0.00494384765625,0.0,0.9986572265625,359.9375,-0.5625,5.9375
1563493165.223899,359.9375,-0.5625,5.9375,-0.09,-1.02,9.75,0.01,0.02,-0.14,0.0011111111111111111,0.0,0.0,-17.5625,-14.25,-36.5625,35,-0.0521240234375,0.00494384765625,0.0,0.9986572265625,359.9375,-0.5625,5.9375
1563493165.265211,359.9375,-0.5625,5.9375,-0.09,-1.02,9.75,0.0,0.01,-0.14,0.0,0.0011111111111111111,-0.0011111111111111111,-16.75,-14.5625,-36.5625,35,-0.0521240234375,0.00494384765625,0.0,0.9986572265625,359.9375,-0.5625,5.9375
1563493165.303129,359.9375,-0.5625,5.9375,-0.09,-1.02,9.75,0.0,0.01,-0.2,0.0,0.0033333333333333335,0.0,-17.1875,-14.5625,-36.5625,35,-0.0521240234375,0.00494384765625,0.0,0.9986572265625,359.9375,-0.5625,5.9375
1563493165.34346,359.9375,-0.5625,5.9375,-0.09,-1.02,9.75,-0.01,0.02,-0.12,0.0011111111111111111,0.0022222222222222222,0.0,-16.75,-15.375,-35.75,35,-0.0521240234375,0.00494384765625,0.0,0.9986572265625,359.9375,-0.5625,5.9375
1563493165.389802,359.9375,-0.5625,5.9375,-0.09,-1.02,9.75,0.0,0.03,-0.14,0.0011111111111111111,0.0011111111111111111,0.0011111111111111111,-16.375,-14.25,-36.5625,35,-0.0521240234375,0.00494384765625,0.0,0.9986572265625,359.9375,-0.5625,5.9375
1563493165.43358,359.9375,-0.5625,5.9375,-0.09,-1.02,9.75,0.0,0.04,-0.14,0.0,0.0011111111111111111,0.0011111111111111111,-16.375,-14.25,-36.5625,35,-0.0521240234375,0.00494384765625,0.0,0.9986572265625,359.9375,-0.5625,5.9375
1563493165.480261,359.9375,-0.5625,5.9375,-0.09,-1.02,9.75,-0.02,0.02,-0.15,-0.0011111111111111111,-0.0022222222222222222,0.0022222222222222222,-15.6875,-14.5625,-36.0625,35,-0.0521240234375,0.00494384765625,0.0,0.9986572265625,359.9375,-0.5625,5.9375
1563493165.522924,359.9375,-0.5625,5.9375,-0.09,-1.02,9.75,0.02,0.01,-0.16,0.0,0.0,0.0011111111111111111,-16.75,-14.25,-36.0625,35,-0.0521240234375,0.00494384765625,0.0,0.9986572265625,359.9375,-0.5625,5.9375
1563493165.562306,359.9375,-0.5625,5.9375,-0.09,-1.02,9.75,-0.01,0.01,-0.14,-0.0033333333333333335,0.0011111111111111111,0.0011111111111111111,-16.375,-14.5625,-37.375,35,-0.0521240234375,0.00494384765625,0.0,0.9986572265625,359.9375,-0.5625,5.9375
1563493165.600741,359.9375,-0.5625,5.9375,-0.09,-1.02,9.75,-0.01,0.01,-0.15,0.0011111111111111111,0.0011111111111111111,0.0,-16.75,-15.0,-36.5625,35,-0.0521240234375,0.00494384765625,0.0,0.9986572265625,359.9375,-0.5625,5.9375
1563493165.640711,359.9375,-0.5625,5.9375,-0.09,-1.02,9.75,-0.02,0.01,-0.16,-0.0011111111111111111,-0.0011111111111111111,0.0011111111111111111,-17.1875,-14.5625,-36.0625,35,-0.0521240234375,0.00494384765625,0.0,0.9986572265625,359.9375,-0.5625,5.9375
1563493165.684672,359.9375,-0.5625,5.9375,-0.09,-1.02,9.75,0.02,0.01,-0.16,0.0,-0.0022222222222222222,0.0011111111111111111,-17.1875,-14.5625,-36.0625,35,-0.0521240234375,0.00494384765625,0.0,0.9986572265625,359.9375,-0.5625,5.9375
1563493165.731313,359.9375,-0.5625,5.9375,-0.09,-1.02,9.75,-0.02,0.01,-0.16,0.0,-0.0011111111111111111,0.0011111111111111111,-17.1875,-14.5625,-36.0625,35,-0.0521240234375,0.00494384765625,0.0,0.9986572265625,359.9375,-0.5625,5.9375
1563493165.774186,359.9375,-0.5625,5.9375,-0.09,-1.02,9.75,-0.01,0.01,-0.15,-0.0011111111111111111,0.0022222222222222222,0.0,-16.375,-14.25,-36.0625,35,-0.0521240234375,0.00494384765625,0.0,0.9986572265625,359.9375,-0.5625,5.9375
1563493165.813443,359.9375,-0.5625,5.9375,-0.09,-1.02,9.75,0.01,0.01,-0.13,0.0011111111111111111,0.0,-0.0011111111111111111,-16.0625,-14.5625,-35.75,35,-0.0521240234375,0.00494384765625,0.0,0.9986572265625,359.9375,-0.5625,5.9375
1563493165.853575,359.9375,-0.5625,5.9375,-0.09,-1.02,9.75,0.0,0.03,-0.18,0.0,-0.0022222222222222222,0.0011111111111111111,-16.375,-15.0,-36.0625,35,-0.0521240234375,0.00494384765625,0.0,0.9986572265625,359.9375,-0.5625,5.9375
1563493165.89369,359.9375,-0.5625,5.9375,-0.09,-1.02,9.75,0.0,0.01,-0.14,0.0,-0.0022222222222222222,0.0,-16.75,-15.375,-37.375,35,-0.0521240234375,0.00494384765625,0.0,0.9986572265625,359.9375,-0.5625,5.9375
1563493165.935701,359.9375,-0.5625,5.9375,-0.09,-1.02,9.75,-0.01,0.01,-0.13,0.0011111111111111111,-0.0022222222222222222,0.0,-16.75,-15.375,-37.375,35,-0.0521240234375,0.00494384765625,0.0,0.9986572265625,359.9375,-0.5625,5.9375
1563493165.982337,359.9375,-0.5625,5.9375,-0.09,-1.02,9.75,0.0,0.03,-0.17,0.0,0.0011111111111111111,0.0011111111111111111,-16.375,-15.75,-36.875,35,-0.0521240234375,0.00494384765625,0.0,0.9986572265625,359.9375,-0.5625,5.9375
1563493166.025001,359.9375,-0.5625,5.9375,-0.09,-1.02,9.75,0.01,0.02,-0.14,0.0,0.0,-0.0011111111111111111,-16.75,-15.0,-36.875,35,-0.0521240234375,0.00494384765625,0.0,0.9986572265625,359.9375,-0.5625,5.9375
1563493166.064361,359.9375,-0.5625,5.9375,-0.09,-1.02,9.75,-0.01,0.01,-0.16,-0.0022222222222222222,0.0011111111111111111,-0.0011111111111111111,-16.75,-15.375,-37.375,35,-0.0521240234375,0.00494384765625,0.0,0.9986572265625,359.9375,-0.5625,5.9375
1563493166.10292,359.9375,-0.5625,5.9375,-0.09,-1.02,9.75,0.0,0.0,-0.17,-0.0011111111111111111,0.0,0.0011111111111111111,-16.75,-15.0,-36.875,35,-0.0521240234375,0.00494384765625,0.0,0.9986572265625,359.9375,-0.5625,5.9375
1563493166.142786,359.9375,-0.5625,5.9375,-0.09,-1.02,9.75,0.0,0.03,-0.15,0.0,0.0,-0.0011111111111111111,-16.75,-15.0,-36.5625,35,-0.0521240234375,0.00494384765625,0.0,0.9986572265625,359.9375,-0.5625,5.9375
1563493166.186738,359.9375,-0.5625,5.9375,-0.09,-1.02,9.75,0.0,0.01,-0.17,0.0,0.0,0.0022222222222222222,-16.75,-15.0,-36.5625,35,-0.0521240234375,0.00494384765625,0.0,0.9986572265625,359.9375,-0.5625,5.9375
1563493166.233397,359.9375,-0.5625,5.9375,-0.09,-1.02,9.75,-0.01,0.0,-0.16,0.0,-0.0011111111111111111,0.0,-17.1875,-14.5625,-36.5625,35,-0.0521240234375,0.00494384765625,0.0,0.9986572265625,359.9375,-0.5625,5.9375
1563493166.27615,359.9375,-0.5625,5.9375,-0.09,-1.02,9.75,-0.01,0.03,-0.16,0.0,0.0,0.0011111111111111111,-16.375,-14.5625,-37.375,35,-0.0521240234375,0.00494384765625,0.0,0.9986572265625,359.9375,-0.5625,5.9375
1563493166.31548,359.9375,-0.5625,5.9375,-0.09,-1.02,9.75,0.02,0.01,-0.16,-0.0022222222222222222,0.0,0.0011111111111111111,-16.75,-15.375,-37.375,35,-0.0521240234375,0.00494384765625,0.0,0.9986572265625,359.9375,-0.5625,5.9375
1563493166.355595,359.9375,-0.5625,5.9375,-0.09,-1.02,9.75,0.02,0.02,-0.19,0.0,0.0011111111111111111,-0.0033333333333333335,-16.75,-15.0,-36.875,35,-0.0521240234375,0.00494384765625,0.0,0.9986572265625,359.9375,-0.5625,5.9375
1563493166.39402,359.9375,-0.5625,5.9375,-0.09,-1.02,9.75,0.0,0.01,-0.15,-0.0011111111111111111,-0.0011111111111111111,-0.0011111111111111111,-16.375,-15.0,-36.0625,35,-0.0521240234375,0.00494384765625,0.0,0.9986572265625,359.9375,-0.5625,5.9375
1563493166.437896,359.9375,-0.5625,5.9375,-0.09,-1.02,9.75,-0.01,0.01,-0.14,0.0,-0.0033333333333333335,0.0011111111111111111,-16.375,-15.0,-36.0625,35,-0.0521240234375,0.00494384765625,0.0,0.9986572265625,359.9375,-0.5625,5.9375
1563493166.484384,359.9375,-0.5625,5.9375,-0.09,-1.02,9.75,0.0,0.01,-0.12,0.0,0.0,0.0011111111111111111,-16.375,-15.0,-36.875,35,-0.0521240234375,0.00494384765625,0.0,0.9986572265625,359.9375,-0.5625,5.9375
1563493166.527165,359.9375,-0.5625,5.9375,-0.09,-1.02,9.75,0.0,0.02,-0.15,0.0,-0.0011111111111111111,-0.0011111111111111111,-16.375,-14.5625,-37.375,35,-0.0521240234375,0.00494384765625,0.0,0.9986572265625,359.9375,-0.5625,5.9375
1563493166.566596,359.9375,-0.5625,5.9375,-0.09,-1.02,9.75,0.0,0.01,-0.15,0.0,0.0044444444444444444,0.0011111111111111111,-16.0625,-14.25,-36.875,35,-0.0521240234375,0.00494384765625,0.0,0.9986572265625,359.9375,-0.5625,5.9375
1563493166.606842,359.9375,-0.5625,5.9375,-0.09,-1.02,9.75,-0.01,0.01,-0.16,-0.0022222222222222222,-0.0011111111111111111,0.0,-16.375,-14.25,-35.75,35,-0.0521240234375,0.00494384765625,0.0,0.9986572265625,359.9375,-0.5625,5.9375
1563493166.646634,359.9375,-0.5625,5.9375,-0.09,-1.02,9.75,0.0,0.01,-0.15,0.0011111111111111111,0.0022222222222222222,0.0011111111111111111,-17.1875,-14.5625,-39.0,35,-0.0521240234375,0.00494384765625,0.0,0.9986572265625,359.9375,-0.5625,5.9375
1563493166.688892,359.9375,-0.5625,5.9375,-0.09,-1.02,9.75,0.01,0.02,-0.16,0.0,-0.0022222222222222222,0.0033333333333333335,-17.1875,-14.5625,-39.0,35,-0.0521240234375,0.00494384765625,0.0,0.9986572265625,359.9375,-0.5625,5.9375
1563493166.735432,359.9375,-0.5625,5.9375,-0.09,-1.02,9.75,-0.01,0.02,-0.11,0.0011111111111111111,0.0,0.0011111111111111111,-17.5625,-15.0,-37.375,35,-0.0521240234375,0.00494384765625,0.0,0.9986572265625,359.9375,-0.5625,5.9375
1563493166.778228,359.9375,-0.5625,5.9375,-0.09,-1.02,9.75,-0.01,0.01,-0.18,-0.0011111111111111111,0.0033333333333333335,0.0022222222222222222,-16.375,-14.5625,-36.0625,35,-0.0521240234375,0.00494384765625,0.0,0.9986572265625,359.9375,-0.5625,5.9375
1563493166.817594,359.9375,-0.5625,5.9375,-0.09,-1.02,9.75,0.0,0.03,-0.14,0.0,0.0,0.0,-16.375,-13.875,-35.25,35,-0.0521240234375,0.00494384765625,0.0,0.9986572265625,359.9375,-0.5625,5.9375
1563493166.856026,359.9375,-0.5625,5.9375,-0.09,-1.02,9.75,0.0,0.01,-0.15,-0.0011111111111111111,0.0022222222222222222,0.0,-16.75,-15.375,-36.0625,35,-0.0521240234375,0.00494384765625,0.0,0.9986572265625,359.9375,-0.5625,5.9375
1563493166.896195,359.9375,-0.5625,5.9375,-0.09,-1.02,9.75,0.0,0.01,-0.14,0.0,0.0011111111111111111,-0.0011111111111111111,-16.0625,-15.0,-36.0625,35,-0.0521240234375,0.00494384765625,0.0,0.9986572265625,359.9375,-0.5625,5.9375
1563493166.939838,359.9375,-0.5625,5.9375,-0.09,-1.02,9.75,0.0,0.03,-0.12,-0.0011111111111111111,0.0,0.0,-16.0625,-15.0,-36.0625,35,-0.0521240234375,0.00494384765625,0.0,0.9986572265625,359.9375,-0.5625,5.9375
1563493166.980913,359.9375,-0.5625,5.9375,-0.09,-1.02,9.75,0.0,0.01,-0.15,0.0011111111111111111,-0.0033333333333333335,0.0022222222222222222,-17.1875,-13.875,-35.25,35,-0.0521240234375,0.00494384765625,0.0,0.9986572265625,359.9375,-0.5625,5.9375
1563493167.020341,359.9375,-0.5625,5.9375,-0.09,-1.02,9.75,0.0,0.02,-0.15,0.0022222222222222222,0.0,0.0011111111111111111,-15.6875,-14.5625,-37.375,35,-0.0521240234375,0.00494384765625,0.0,0.9986572265625,359.9375,-0.5625,5.9375
1563493167.060442,359.9375,-0.5625,5.9375,-0.09,-1.02,9.75,0.0,0.04,-0.15,-0.0011111111111111111,0.0,0.0,-16.375,-13.5,-37.375,35,-0.0521240234375,0.00494384765625,0.0,0.9986572265625,359.9375,-0.5625,5.9375
1563493167.100669,359.9375,-0.5625,5.9375,-0.09,-1.02,9.75,0.0,0.01,-0.17,-0.0011111111111111111,-0.0011111111111111111,0.0,-17.1875,-15.375,-36.875,35,-0.0521240234375,0.00494384765625,0.0,0.9986572265625,359.9375,-0.5625,5.9375
1563493167.146987,359.9375,-0.5625,5.9375,-0.09,-1.02,9.75,0.0,0.02,-0.14,0.0,-0.0033333333333333335,-0.0011111111111111111,-16.75,-14.25,-38.1875,35,-0.0521240234375,0.00494384765625,0.0,0.9986572265625,359.9375,-0.5625,5.9375
1563493167.190929,359.9375,-0.5625,5.9375,-0.09,-1.02,9.75,-0.01,0.02,-0.13,-0.0011111111111111111,0.0,0.0,-16.75,-14.25,-38.1875,35,-0.0521240234375,0.00494384765625,0.0,0.9986572265625,359.9375,-0.5625,5.9375
1563493167.23192,359.9375,-0.5625,5.9375,-0.09,-1.02,9.75,0.0,0.01,-0.15,0.0,0.0022222222222222222,0.0,-16.375,-15.0,-37.375,35,-0.0521240234375,0.00494384765625,0.0,0.9986572265625,359.9375,-0.5625,5.9375
1563493167.271275,359.9375,-0.5625,5.9375,-0.09,-1.02,9.75,0.0,0.03,-0.14,-0.0011111111111111111,-0.0011111111111111111,0.0011111111111111111,-16.75,-14.5625,-37.375,35,-0.0521240234375,0.00494384765625,0.0,0.9986572265625,359.9375,-0.5625,5.9375
1563493167.313526,359.9375,-0.5625,5.9375,-0.09,-1.02,9.75,0.01,0.0,-0.19,0.0,-0.0011111111111111111,0.0,-16.0625,-15.375,-36.0625,35,-0.0521240234375,0.00494384765625,0.0,0.9986572265625,359.9375,-0.5625,5.9375
1563493167.351582,359.9375,-0.5625,5.9375,-0.09,-1.02,9.75,0.0,0.01,-0.13,0.0,-0.0022222222222222222,0.0033333333333333335,-16.75,-14.5625,-37.75,35,-0.0521240234375,0.00494384765625,0.0,0.9986572265625,359.9375,-0.5625,5.9375
1563493167.393771,359.9375,-0.5625,5.9375,-0.09,-1.02,9.75,0.02,0.03,-0.16,0.0,-0.0022222222222222222,0.0011111111111111111,-16.375,-14.5625,-36.875,35,-0.0521240234375,0.00494384765625,0.0,0.9986572265625,359.9375,-0.5625,5.9375
1563493167.43835,359.9375,-0.5625,5.9375,-0.09,-1.02,9.75,0.0,0.02,-0.12,0.0,0.0,-0.0011111111111111111,-16.375,-14.5625,-36.875,35,-0.0521240234375,0.00494384765625,0.0,0.9986572265625,359.9375,-0.5625,5.9375
1563493167.481131,359.9375,-0.5625,5.9375,-0.09,-1.02,9.75,-0.01,0.0,-0.16,-0.0011111111111111111,0.0011111111111111111,-0.0011111111111111111,-16.75,-13.5,-36.875,35,-0.0521240234375,0.00494384765625,0.0,0.9986572265625,359.9375,-0.5625,5.9375
1563493167.520554,359.9375,-0.5625,5.9375,-0.09,-1.02,9.75,-0.01,0.02,-0.14,0.0,0.0011111111111111111,0.0011111111111111111,-17.5625,-14.5625,-36.875,35,-0.0521240234375,0.00494384765625,0.0,0.9986572265625,359.9375,-0.5625,5.9375
1563493167.55891,359.9375,-0.5625,5.9375,-0.09,-1.02,9.75,0.01,0.03,-0.17,-0.0022222222222222222,0.0022222222222222222,0.0,-17.5625,-15.0,-36.0625,35,-0.0521240234375,0.00494384765625,0.0,0.9986572265625,359.9375,-0.5625,5.9375
1563493167.598953,359.9375,-0.5625,5.9375,-0.09,-1.02,9.75,0.01,0.01,-0.15,0.0,0.0,0.0033333333333333335,-16.0625,-15.375,-37.375,35,-0.0521240234375,0.00494384765625,0.0,0.9986572265625,359.9375,-0.5625,5.9375
1563493167.64275,359.9375,-0.5625,5.9375,-0.09,-1.02,9.75,0.0,0.02,-0.13,0.0011111111111111111,0.0,0.0,-16.0625,-15.375,-37.375,35,-0.0521240234375,0.00494384765625,0.0,0.9986572265625,359.9375,-0.5625,5.9375
1563493167.683805,359.9375,-0.5625,5.9375,-0.09,-1.02,9.75,-0.01,0.01,-0.16,-0.0011111111111111111,-0.0011111111111111111,0.0011111111111111111,-16.375,-14.5625,-36.5625,35,-0.0521240234375,0.00494384765625,0.0,0.9986572265625,359.9375,-0.5625,5.9375
1563493167.723014,359.9375,-0.5625,5.9375,-0.09,-1.02,9.75,0.0,0.02,-0.19,0.0011111111111111111,0.0,0.0,-17.1875,-15.375,-36.5625,35,-0.0521240234375,0.00494384765625,0.0,0.9986572265625,359.9375,-0.5625,5.9375
1563493167.761466,359.9375,-0.5625,5.9375,-0.09,-1.02,9.75,0.01,0.01,-0.15,0.0011111111111111111,-0.0011111111111111111,0.0011111111111111111,-17.1875,-13.875,-36.875,35,-0.0521240234375,0.00494384765625,0.0,0.9986572265625,359.9375,-0.5625,5.9375
1563493167.799973,359.9375,-0.5625,5.9375,-0.09,-1.02,9.75,0.0,0.03,-0.11,0.0011111111111111111,0.0,0.0011111111111111111,-16.75,-15.0,-36.875,35,-0.0521240234375,0.00494384765625,0.0,0.9986572265625,359.9375,-0.5625,5.9375
1563493167.843566,359.9375,-0.5625,5.9375,-0.09,-1.02,9.75,-0.01,0.01,-0.15,0.0011111111111111111,0.0022222222222222222,0.0,-16.75,-15.0,-36.875,35,-0.0521240234375,0.00494384765625,0.0,0.9986572265625,359.9375,-0.5625,5.9375
1563493167.884784,359.9375,-0.5625,5.9375,-0.09,-1.02,9.75,0.0,0.02,-0.14,-0.0011111111111111111,0.0022222222222222222,-0.0011111111111111111,-17.1875,-14.5625,-36.875,35,-0.0521240234375,0.00494384765625,0.0,0.9986572265625,359.9375,-0.5625,5.9375
1563493167.923846,359.9375,-0.5625,5.9375,-0.09,-1.02,9.75,0.0,0.02,-0.13,0.0,-0.0022222222222222222,-0.0011111111111111111,-17.1875,-14.5625,-36.875,35,-0.0521240234375,0.00494384765625,0.0,0.9986572265625,359.9375,-0.5625,5.9375
1563493167.962293,359.9375,-0.5625,5.9375,-0.09,-1.02,9.75,0.0,0.01,-0.15,-0.0011111111111111111,0.0011111111111111111,0.0,-16.375,-14.25,-37.375,35,-0.0521240234375,0.00494384765625,0.0,0.9986572265625,359.9375,-0.5625,5.9375
1563493168.000593,359.9375,-0.5625,5.9375,-0.09,-1.02,9.75,0.0,0.01,-0.12,0.0011111111111111111,-0.0022222222222222222,0.0,-16.75,-14.25,-36.5625,35,-0.0521240234375,0.00494384765625,0.0,0.9986572265625,359.9375,-0.5625,5.9375
1563493168.044387,359.9375,-0.5625,5.9375,-0.09,-1.02,9.75,0.02,0.0,-0.15,0.0,0.0022222222222222222,0.0011111111111111111,-16.75,-14.25,-36.5625,35,-0.0521240234375,0.00494384765625,0.0,0.9986572265625,359.9375,-0.5625,5.9375
1563493168.085562,359.9375,-0.5625,5.9375,-0.09,-1.02,9.75,0.0,0.02,-0.12,-0.0011111111111111111,0.0011111111111111111,0.0022222222222222222,-16.375,-15.0,-36.5625,35,-0.0521240234375,0.00494384765625,0.0,0.9986572265625,359.9375,-0.5625,5.9375
1563493168.12467,359.9375,-0.5625,5.9375,-0.09,-1.02,9.75,0.0,0.01,-0.15,0.0,0.0022222222222222222,0.0011111111111111111,-16.75,-15.0,-36.5625,35,-0.0521240234375,0.00494384765625,0.0,0.9986572265625,359.9375,-0.5625,5.9375
1563493168.163184,359.9375,-0.5625,5.9375,-0.09,-1.02,9.75,0.02,0.01,-0.17,0.0,0.0022222222222222222,0.0,-17.5625,-15.0,-35.75,35,-0.0521240234375,0.00494384765625,0.0,0.9986572265625,359.9375,-0.5625,5.9375
1563493168.201461,359.9375,-0.5625,5.9375,-0.09,-1.02,9.75,-0.01,0.02,-0.15,0.0,0.0,-0.0011111111111111111,-17.1875,-14.25,-36.875,35,-0.0521240234375,0.00494384765625,0.0,0.9986572265625,359.9375,-0.5625,5.9375
1563493168.245235,359.9375,-0.5625,5.9375,-0.09,-1.02,9.75,0.0,0.01,-0.15,0.0011111111111111111,-0.0022222222222222222,0.0022222222222222222,-17.1875,-14.25,-36.875,35,-0.0521240234375,0.00494384765625,0.0,0.9986572265625,359.9375,-0.5625,5.9375
1563493168.286331,359.9375,-0.5625,5.9375,-0.09,-1.02,9.75,0.0,0.01,-0.18,-0.0011111111111111111,0.0,0.0011111111111111111,-16.0625,-13.875,-36.0625,35,-0.0521240234375,0.00494384765625,0.0,0.9986572265625,359.9375,-0.5625,5.9375
1563493168.325488,359.9375,-0.5625,5.9375,-0.09,-1.02,9.75,0.01,0.03,-0.15,0.0,0.0011111111111111111,0.0,-16.75,-14.25,-37.75,35,-0.0521240234375,0.00494384765625,0.0,0.9986572265625,359.9375,-0.5625,5.9375
1563493168.363907,359.9375,-0.5625,5.9375,-0.09,-1.02,9.75,0.01,0.01,-0.16,0.0011111111111111111,-0.0033333333333333335,0.0011111111111111111,-16.75,-15.0,-37.75,35,-0.0521240234375,0.00494384765625,0.0,0.9986572265625,359.9375,-0.5625,5.9375
1563493168.402398,359.9375,-0.5625,5.9375,-0.09,-1.02,9.75,0.0,0.02,-0.17,0.0,-0.0011111111111111111,0.0011111111111111111,-17.1875,-14.5625,-36.875,35,-0.0521240234375,0.00494384765625,0.0,0.9986572265625,359.9375,-0.5625,5.9375
1563493168.446069,359.9375,-0.5625,5.9375,-0.09,-1.02,9.75,0.0,0.01,-0.12,0.0,0.0,0.0011111111111111111,-17.1875,-14.5625,-36.875,35,-0.0521240234375,0.00494384765625,0.0,0.9986572265625,359.9375,-0.5625,5.9375
1563493168.487185,359.9375,-0.5625,5.9375,-0.09,-1.02,9.75,0.0,0.01,-0.15,0.0,0.0,-0.0022222222222222222,-16.375,-14.25,-36.0625,35,-0.0521240234375,0.00494384765625,0.0,0.9986572265625,359.9375,-0.5625,5.9375
1563493168.526325,359.9375,-0.5625,5.9375,-0.09,-1.02,9.75,0.0,0.0,-0.15,0.0,0.0022222222222222222,0.0011111111111111111,-16.75,-16.0625,-36.1875,35,-0.0521240234375,0.00494384765625,0.0,0.9986572265625,359.9375,-0.5625,5.9375
1563493168.564823,359.9375,-0.5625,5.9375,-0.09,-1.02,9.75,0.0,0.0,-0.2,0.0,0.0011111111111111111,0.0,-17.1875,-15.375,-37.375,35,-0.0521240234375,0.00494384765625,0.0,0.9986572265625,359.9375,-0.5625,5.9375
1563493168.603121,359.9375,-0.5625,5.9375,-0.09,-1.02,9.75,0.01,0.01,-0.14,0.0,-0.0011111111111111111,0.0011111111111111111,-16.375,-14.25,-38.1875,35,-0.0521240234375,0.00494384765625,0.0,0.9986572265625,359.9375,-0.5625,5.9375
1563493168.646749,359.9375,-0.5625,5.9375,-0.09,-1.02,9.75,-0.01,0.01,-0.15,0.0,0.0011111111111111111,0.0,-16.375,-14.25,-38.1875,35,-0.0521240234375,0.00494384765625,0.0,0.9986572265625,359.9375,-0.5625,5.9375
1563493168.687831,359.9375,-0.5625,5.9375,-0.09,-1.02,9.75,-0.01,0.01,-0.15,0.0,-0.0033333333333333335,-0.0011111111111111111,-17.1875,-15.0,-36.875,35,-0.0521240234375,0.00494384765625,0.0,0.9986572265625,359.9375,-0.5625,5.9375
1563493168.72717,359.9375,-0.5625,5.9375,-0.09,-1.02,9.75,0.0,0.02,-0.17,0.0011111111111111111,0.0033333333333333335,0.0,-16.375,-14.25,-37.375,35,-0.0521240234375,0.00494384765625,0.0,0.9986572265625,359.9375,-0.5625,5.9375
1563493168.767449,359.9375,-0.5625,5.9375,-0.09,-1.02,9.75,-0.01,0.02,-0.17,-0.0011111111111111111,0.0022222222222222222,-0.0011111111111111111,-16.75,-14.25,-36.0625,35,-0.0521240234375,0.00494384765625,0.0,0.9986572265625,359.9375,-0.5625,5.9375
1563493168.807542,359.9375,-0.5625,5.9375,-0.09,-1.02,9.75,0.0,0.01,-0.17,0.0011111111111111111,0.0,-0.0022222222222222222,-17.1875,-13.875,-36.875,35,-0.0521240234375,0.00494384765625,0.0,0.9986572265625,359.9375,-0.5625,5.9375
1563493168.849791,359.9375,-0.5625,5.9375,-0.09,-1.02,9.75,0.0,0.01,-0.16,-0.0011111111111111111,0.0,-0.0011111111111111111,-17.1875,-15.0,-37.375,35,-0.0521240234375,0.00494384765625,0.0,0.9986572265625,359.9375,-0.5625,5.9375
1563493168.894381,359.9375,-0.5625,5.9375,-0.09,-1.02,9.75,0.0,0.01,-0.13,0.0011111111111111111,-0.0022222222222222222,0.0011111111111111111,-17.1875,-15.0,-37.375,35,-0.0521240234375,0.00494384765625,0.0,0.9986572265625,359.9375,-0.5625,5.9375
1563493168.937708,359.9375,-0.5625,5.9375,-0.09,-1.02,9.75,0.0,0.02,-0.17,0.0011111111111111111,0.0,0.0,-16.0625,-14.5625,-36.5625,35,-0.0521240234375,0.00494384765625,0.0,0.9986572265625,359.9375,-0.5625,5.9375
1563493168.976499,359.9375,-0.5625,5.9375,-0.09,-1.02,9.75,0.0,0.02,-0.17,0.0011111111111111111,0.0,0.0022222222222222222,-16.375,-14.25,-37.0,35,-0.0521240234375,0.00494384765625,0.0,0.9986572265625,359.9375,-0.5625,5.9375
1563493169.016662,359.9375,-0.5625,5.9375,-0.09,-1.02,9.75,0.0,0.03,-0.14,0.0,-0.0011111111111111111,-0.0011111111111111111,-16.75,-13.875,-36.5625,35,-0.0521240234375,0.00494384765625,0.0,0.9986572265625,359.9375,-0.5625,5.9375
1563493169.056635,359.9375,-0.5625,5.9375,-0.09,-1.02,9.75,0.0,0.02,-0.13,0.0022222222222222222,0.0,0.0022222222222222222,-17.1875,-14.5625,-38.1875,35,-0.0521240234375,0.00494384765625,0.0,0.9986572265625,359.9375,-0.5625,5.9375
1563493169.098704,359.9375,-0.5625,5.9375,-0.09,-1.02,9.75,0.0,0.02,-0.14,0.0,-0.0033333333333333335,0.0,-17.1875,-14.5625,-38.1875,35,-0.0521240234375,0.00494384765625,0.0,0.9986572265625,359.9375,-0.5625,5.9375
1563493169.13973,359.9375,-0.5625,5.9375,-0.09,-1.02,9.75,0.0,0.02,-0.13,-0.0011111111111111111,0.0,0.0,-16.0625,-15.0,-37.0,35,-0.0521240234375,0.00494384765625,0.0,0.9986572265625,359.9375,-0.5625,5.9375
1563493169.178982,359.9375,-0.5625,5.9375,-0.09,-1.02,9.75,0.0,0.0,-0.15,-0.0011111111111111111,-0.0011111111111111111,0.0022222222222222222,-16.75,-14.5625,-36.0625,35,-0.0521240234375,0.00494384765625,0.0,0.9986572265625,359.9375,-0.5625,5.9375
1563493169.217472,359.9375,-0.5625,5.9375,-0.09,-1.02,9.75,-0.01,0.01,-0.16,-0.0011111111111111111,0.0011111111111111111,-0.0011111111111111111,-16.375,-14.25,-37.375,35,-0.0521240234375,0.00494384765625,0.0,0.9986572265625,359.9375,-0.5625,5.9375
1563493169.255657,359.9375,-0.5625,5.9375,-0.09,-1.02,9.75,0.0,0.02,-0.14,0.0011111111111111111,0.0,0.0011111111111111111,-17.1875,-15.75,-37.375,35,-0.0521240234375,0.00494384765625,0.0,0.9986572265625,359.9375,-0.5625,5.9375
1563493169.299505,359.9375,-0.5625,5.9375,-0.09,-1.02,9.75,-0.08,0.08,-0.12,-0.0011111111111111111,-0.0011111111111111111,0.0022222222222222222,-17.1875,-15.75,-37.375,35,-0.0521240234375,0.00494384765625,0.0,0.9986572265625,359.9375,-0.5625,5.9375
1563493169.3407,359.9375,-0.5625,5.9375,-0.09,-1.02,9.75,0.0,0.02,-0.16,0.0011111111111111111,-0.0011111111111111111,-0.0022222222222222222,-16.375,-14.25,-37.375,35,-0.0521240234375,0.00494384765625,0.0,0.9986572265625,359.9375,-0.5625,5.9375
1563493169.37976,359.9375,-0.5625,5.9375,-0.09,-1.02,9.75,0.0,0.0,-0.16,0.0022222222222222222,-0.0011111111111111111,0.0,-16.75,-14.25,-34.875,35,-0.0521240234375,0.00494384765625,0.0,0.9986572265625,359.9375,-0.5625,5.9375
1563493169.418203,359.9375,-0.5625,5.9375,-0.09,-1.02,9.75,0.0,0.03,-0.18,0.0011111111111111111,-0.0022222222222222222,-0.0011111111111111111,-17.5625,-15.0,-36.875,35,-0.0521240234375,0.00494384765625,0.0,0.9986572265625,359.9375,-0.5625,5.9375
1563493169.458356,359.9375,-0.5625,5.9375,-0.09,-1.02,9.75,0.0,0.03,-0.16,0.0,-0.0011111111111111111,0.0011111111111111111,-17.1875,-14.5625,-38.1875,35,-0.0521240234375,0.00494384765625,0.0,0.9986572265625,359.9375,-0.5625,5.9375
1563493169.500417,359.9375,-0.5625,5.9375,-0.09,-1.02,9.75,0.0,0.0,-0.13,0.0011111111111111111,0.0011111111111111111,-0.0033333333333333335,-17.1875,-14.5625,-38.1875,35,-0.0521240234375,0.00494384765625,0.0,0.9986572265625,359.9375,-0.5625,5.9375
1563493169.541273,359.9375,-0.5625,5.9375,-0.09,-1.02,9.75,-0.02,0.01,-0.16,0.0011111111111111111,-0.0022222222222222222,0.0011111111111111111,-16.0625,-15.0,-36.1875,35,-0.0521240234375,0.00494384765625,0.0,0.9986572265625,359.9375,-0.5625,5.9375
1563493169.580653,359.9375,-0.5625,5.9375,-0.09,-1.02,9.75,-0.01,0.02,-0.15,0.0011111111111111111,-0.0011111111111111111,0.0011111111111111111,-17.1875,-15.0,-37.0,35,-0.0521240234375,0.00494384765625,0.0,0.9986572265625,359.9375,-0.5625,5.9375
1563493169.619211,359.9375,-0.5625,5.9375,-0.09,-1.02,9.75,0.01,0.0,-0.16,0.0011111111111111111,0.0011111111111111111,0.0011111111111111111,-16.375,-14.5625,-37.375,35,-0.0521240234375,0.00494384765625,0.0,0.9986572265625,359.9375,-0.5625,5.9375
1563493169.659187,359.9375,-0.5625,5.9375,-0.09,-1.02,9.75,-0.03,0.0,-0.11,0.0011111111111111111,0.0011111111111111111,0.0011111111111111111,-16.75,-15.0,-36.875,35,-0.0521240234375,0.00494384765625,0.0,0.9986572265625,359.9375,-0.5625,5.9375
1563493169.701077,359.9375,-0.5625,5.9375,-0.09,-1.02,9.75,-0.06,0.06,-0.13,0.0022222222222222222,0.0,0.0044444444444444444,-16.75,-15.0,-36.875,35,-0.0521240234375,0.00494384765625,0.0,0.9986572265625,359.9375,-0.5625,5.9375
1563493169.74216,359.9375,-0.5625,5.9375,-0.09,-1.02,9.75,0.02,0.02,-0.16,-0.0011111111111111111,0.0,0.0022222222222222222,-17.1875,-15.0,-35.375,35,-0.0521240234375,0.00494384765625,0.0,0.9986572265625,359.9375,-0.5625,5.9375
1563493169.781428,359.9375,-0.5625,5.9375,-0.09,-1.02,9.75,0.05,0.01,-0.17,-0.0011111111111111111,0.0,0.0011111111111111111,-17.1875,-15.375,-36.0625,35,-0.0521240234375,0.00494384765625,0.0,0.9986572265625,359.9375,-0.5625,5.9375
1563493169.819962,359.9375,-0.5625,5.9375,-0.09,-1.02,9.75,-0.01,0.04,-0.18,-0.0011111111111111111,-0.0011111111111111111,0.0022222222222222222,-17.1875,-15.0,-36.5625,35,-0.0521240234375,0.00494384765625,0.0,0.9986572265625,359.9375,-0.5625,5.9375
1563493169.858061,359.9375,-0.5625,5.9375,-0.09,-1.02,9.75,-0.03,0.01,-0.16,-0.0011111111111111111,0.0,0.0,-16.75,-15.375,-37.0,35,-0.0521240234375,0.00494384765625,0.0,0.9986572265625,359.9375,-0.5625,5.9375
1563493169.901891,359.9375,-0.5625,5.9375,-0.09,-1.02,9.75,-0.01,0.01,-0.18,-0.0022222222222222222,0.0,-0.0011111111111111111,-16.75,-15.375,-37.0,35,-0.0521240234375,0.00494384765625,0.0,0.9986572265625,359.9375,-0.5625,5.9375
1563493169.943454,359.9375,-0.5625,5.9375,-0.09,-1.02,9.75,0.0,0.03,-0.16,0.0011111111111111111,0.0,0.0022222222222222222,-16.0625,-14.5625,-36.5625,35,-0.0521240234375,0.00494384765625,0.0,0.9986572265625,359.9375,-0.5625,5.9375
1563493169.982358,359.9375,-0.5625,5.9375,-0.09,-1.02,9.75,0.0,0.01,-0.16,0.0022222222222222222,-0.0022222222222222222,-0.0022222222222222222,-16.75,-15.0,-36.1875,35,-0.0521240234375,0.00494384765625,0.0,0.9986572265625,359.9375,-0.5625,5.9375
1563493170.02247,359.9375,-0.5625,5.9375,-0.09,-1.02,9.75,-0.02,0.01,-0.18,0.0011111111111111111,-0.0011111111111111111,-0.0011111111111111111,-17.1875,-14.5625,-36.5625,35,-0.0521240234375,0.00494384765625,0.0,0.9986572265625,359.9375,-0.5625,5.9375
1563493170.06081,359.9375,-0.5625,5.9375,-0.09,-1.02,9.75,0.01,0.04,-0.1,0.0,-0.005555555555555556,0.0,-16.375,-15.0,-36.0625,35,-0.0521240234375,0.00494384765625,0.0,0.9986572265625,359.9375,-0.5625,5.9375
1563493170.102842,359.9375,-0.5625,5.9375,-0.09,-1.02,9.75,0.0,0.03,-0.18,0.0011111111111111111,0.0011111111111111111,-0.0022222222222222222,-16.375,-15.0,-36.0625,35,-0.0521240234375,0.00494384765625,0.0,0.9986572265625,359.9375,-0.5625,5.9375
1563493170.149491,359.9375,-0.5625,5.9375,-0.09,-1.02,9.75,-0.08,0.09,-0.14,0.0022222222222222222,-0.0022222222222222222,0.0033333333333333335,-17.1875,-15.0,-37.375,35,-0.0521240234375,0.00494384765625,0.0,0.9986572265625,359.9375,-0.5625,5.9375
1563493170.192294,359.9375,-0.5625,5.9375,-0.09,-1.02,9.75,0.03,-0.01,-0.13,-0.006666666666666667,-0.0044444444444444444,-0.0022222222222222222,-16.75,-14.5625,-37.375,35,-0.0521240234375,0.00494384765625,0.0,0.9986572265625,359.9375,-0.5625,5.9375
1563493170.231529,359.9375,-0.5625,5.9375,-0.09,-1.02,9.75,0.03,-0.01,-0.17,-0.0011111111111111111,-0.0022222222222222222,0.0,-16.75,-15.0,-35.75,35,-0.0521240234375,0.00494384765625,0.0,0.9986572265625,359.9375,-0.5625,5.9375
1563493170.270021,359.9375,-0.5625,5.9375,-0.09,-1.02,9.75,-0.04,0.1,-0.14,0.0011111111111111111,-0.0033333333333333335,0.0011111111111111111,-16.0625,-14.5625,-36.1875,35,-0.0521240234375,0.00494384765625,0.0,0.9986572265625,359.9375,-0.5625,5.9375
1563493170.31016,359.9375,-0.5625,5.9375,-0.09,-1.02,9.75,0.0,0.0,-0.16,-0.0011111111111111111,-0.0011111111111111111,-0.0022222222222222222,-16.75,-13.875,-38.1875,35,-0.0521240234375,0.00494384765625,0.0,0.9986572265625,359.9375,-0.5625,5.9375
1563493170.353875,359.9375,-0.5625,5.9375,-0.09,-1.02,9.75,0.0,-0.01,-0.13,0.0,0.0,0.0011111111111111111,-16.75,-13.875,-38.1875,35,-0.0521240234375,0.00494384765625,0.0,0.9986572265625,359.9375,-0.5625,5.9375
1563493170.394732,359.9375,-0.5625,5.9375,-0.09,-1.02,9.75,-0.01,0.07,-0.15,0.0033333333333333335,-0.0011111111111111111,-0.0022222222222222222,-17.5625,-13.875,-35.75,35,-0.0521240234375,0.00494384765625,0.0,0.9986572265625,359.9375,-0.5625,5.9375
1563493170.434064,359.9375,-0.5625,5.9375,-0.09,-1.02,9.75,-0.02,0.0,-0.16,0.0,0.0022222222222222222,-0.0011111111111111111,-16.375,-14.5625,-37.0,35,-0.0521240234375,0.00494384765625,0.0,0.9986572265625,359.9375,-0.5625,5.9375
1563493170.472561,359.9375,-0.5625,5.9375,-0.09,-1.02,9.75,0.0,0.0,-0.16,0.0011111111111111111,0.0011111111111111111,0.0,-16.0625,-14.5625,-36.5625,35,-0.0521240234375,0.00494384765625,0.0,0.9986572265625,359.9375,-0.5625,5.9375
1563493170.511011,359.9375,-0.5625,5.9375,-0.09,-1.02,9.75,0.02,0.02,-0.14,0.0,-0.0011111111111111111,0.0022222222222222222,-16.75,-14.5625,-37.0,35,-0.0521240234375,0.00494384765625,0.0,0.9986572265625,359.9375,-0.5625,5.9375
1563493170.554627,359.9375,-0.5625,5.9375,-0.09,-1.02,9.75,0.03,0.02,-0.14,0.0,-0.0022222222222222222,0.0,-16.75,-14.5625,-37.0,35,-0.0521240234375,0.00494384765625,0.0,0.9986572265625,359.9375,-0.5625,5.9375
1563493170.595848,359.9375,-0.5625,5.9375,-0.09,-1.02,9.75,-0.02,0.01,-0.14,0.0011111111111111111,0.0022222222222222222,-0.0011111111111111111,-16.375,-14.5625,-36.5625,35,-0.0521240234375,0.00494384765625,0.0,0.9986572265625,359.9375,-0.5625,5.9375
1563493170.634961,359.9375,-0.5625,5.9375,-0.09,-1.02,9.75,-0.02,0.03,-0.18,0.0011111111111111111,0.0011111111111111111,-0.0011111111111111111,-16.0625,-13.875,-35.75,35,-0.0521240234375,0.00494384765625,0.0,0.9986572265625,359.9375,-0.5625,5.9375
1563493170.673431,359.9375,-0.5625,5.9375,-0.09,-1.02,9.75,0.01,0.02,-0.16,0.0,-0.0011111111111111111,-0.0022222222222222222,-16.0625,-15.0,-37.375,35,-0.0521240234375,0.00494384765625,0.0,0.9986572265625,359.9375,-0.5625,5.9375
1563493170.711698,359.9375,-0.5625,5.9375,-0.09,-1.02,9.75,0.03,0.01,-0.12,0.0,0.0,-0.0022222222222222222,-17.1875,-14.5625,-37.75,35,-0.0521240234375,0.00494384765625,0.0,0.9986572265625,359.9375,-0.5625,5.9375
1563493170.755318,359.9375,-0.5625,5.9375,-0.09,-1.02,9.75,0.0,0.03,-0.14,0.0011111111111111111,0.0022222222222222222,0.0,-17.1875,-14.5625,-37.75,35,-0.0521240234375,0.00494384765625,0.0,0.9986572265625,359.9375,-0.5625,5.9375
1563493170.796505,359.9375,-0.5625,5.9375,-0.09,-1.02,9.75,0.03,0.01,-0.14,0.0,-0.0011111111111111111,0.0,-17.5625,-14.25,-35.75,35,-0.0521240234375,0.00494384765625,0.0,0.9986572265625,359.9375,-0.5625,5.9375
1563493170.835762,359.9375,-0.5625,5.9375,-0.09,-1.02,9.75,0.02,0.01,-0.14,0.0011111111111111111,0.0011111111111111111,-0.0022222222222222222,-16.75,-15.0,-37.75,35,-0.0521240234375,0.00494384765625,0.0,0.9986572265625,359.9375,-0.5625,5.9375
1563493170.875863,359.9375,-0.5625,5.9375,-0.09,-1.02,9.75,-0.04,0.03,-0.16,0.0011111111111111111,0.0011111111111111111,-0.0022222222222222222,-16.75,-15.75,-36.1875,35,-0.0521240234375,0.00494384765625,0.0,0.9986572265625,359.9375,-0.5625,5.9375
1563493170.914349,359.9375,-0.5625,5.9375,-0.09,-1.02,9.75,-0.08,0.03,-0.14,0.0011111111111111111,0.0033333333333333335,-0.0022222222222222222,-17.1875,-15.0,-37.375,35,-0.0521240234375,0.00494384765625,0.0,0.9986572265625,359.9375,-0.5625,5.9375
1563493170.956224,359.9375,-0.5625,5.9375,-0.09,-1.02,9.75,-0.01,0.0,-0.15,0.0022222222222222222,-0.0033333333333333335,0.0,-17.1875,-15.0,-37.375,35,-0.0521240234375,0.00494384765625,0.0,0.9986572265625,359.9375,-0.5625,5.9375
1563493170.997297,359.9375,-0.5625,5.9375,-0.09,-1.02,9.75,0.08,0.01,-0.17,0.0,0.0,0.0011111111111111111,-15.6875,-14.5625,-37.0,35,-0.0521240234375,0.00494384765625,0.0,0.9986572265625,359.9375,-0.5625,5.9375
1563493171.036523,359.9375,-0.5625,5.9375,-0.09,-1.02,9.75,0.03,0.06,-0.18,0.0011111111111111111,-0.0011111111111111111,0.0,-16.375,-15.75,-36.5625,35,-0.0521240234375,0.00494384765625,0.0,0.9986572265625,359.9375,-0.5625,5.9375
1563493171.07498,359.9375,-0.5625,5.9375,-0.09,-1.02,9.75,-0.07,0.0,-0.2,-0.0022222222222222222,0.0011111111111111111,0.0,-16.375,-15.0,-36.5625,35,-0.0521240234375,0.00494384765625,0.0,0.9986572265625,359.9375,-0.5625,5.9375
1563493171.113487,359.9375,-0.5625,5.9375,-0.09,-1.02,9.75,-0.06,0.01,-0.19,0.0011111111111111111,0.0022222222222222222,0.0022222222222222222,-16.375,-15.0,-37.375,35,-0.0521240234375,0.00494384765625,0.0,0.9986572265625,359.9375,-0.5625,5.9375
1563493171.157157,359.9375,-0.5625,5.9375,-0.09,-1.02,9.75,0.03,0.04,-0.15,0.0011111111111111111,0.0,0.0022222222222222222,-16.375,-15.0,-37.375,35,-0.0521240234375,0.00494384765625,0.0,0.9986572265625,359.9375,-0.5625,5.9375
1563493171.198202,359.9375,-0.5625,5.9375,-0.09,-1.02,9.75,0.03,0.01,-0.15,0.0,0.0,-0.0011111111111111111,-17.1875,-15.0,-36.1875,35,-0.0521240234375,0.00494384765625,0.0,0.9986572265625,359.9375,-0.5625,5.9375
1563493171.237427,359.9375,-0.5625,5.9375,-0.09,-1.02,9.75,-0.05,0.02,-0.14,-0.0011111111111111111,0.0011111111111111111,-0.0022222222222222222,-15.6875,-15.0,-35.375,35,-0.0521240234375,0.00494384765625,0.0,0.9986572265625,359.9375,-0.5625,5.9375
1563493171.275769,359.9375,-0.5625,5.9375,-0.09,-1.02,9.75,0.0,0.03,-0.17,0.0,0.0,0.0011111111111111111,-15.6875,-14.5625,-35.375,35,-0.0521240234375,0.00494384765625,0.0,0.9986572265625,359.9375,-0.5625,5.9375
1563493171.314255,359.9375,-0.5625,5.9375,-0.09,-1.02,9.75,0.06,0.01,-0.16,-0.0011111111111111111,0.0011111111111111111,0.0011111111111111111,-17.1875,-14.5625,-37.375,35,-0.0521240234375,0.00494384765625,0.0,0.9986572265625,359.9375,-0.5625,5.9375
1563493171.357979,359.9375,-0.5625,5.9375,-0.09,-1.02,9.75,-0.01,0.0,-0.15,0.0,-0.0022222222222222222,0.0,-17.1875,-14.5625,-37.375,35,-0.0521240234375,0.00494384765625,0.0,0.9986572265625,359.9375,-0.5625,5.9375
1563493171.399046,359.9375,-0.5625,5.9375,-0.09,-1.02,9.75,-0.06,0.02,-0.15,-0.0022222222222222222,0.0,0.0011111111111111111,-16.75,-14.5625,-37.375,35,-0.0521240234375,0.00494384765625,0.0,0.9986572265625,359.9375,-0.5625,5.9375
1563493171.438239,359.9375,-0.5625,5.9375,-0.09,-1.02,9.75,0.03,0.01,-0.16,-0.0011111111111111111,-0.0033333333333333335,0.0022222222222222222,-16.75,-13.875,-36.5625,35,-0.0521240234375,0.00494384765625,0.0,0.9986572265625,359.9375,-0.5625,5.9375
1563493171.476676,359.9375,-0.5625,5.9375,-0.09,-1.02,9.75,0.04,0.03,-0.15,0.0022222222222222222,-0.0011111111111111111,0.0011111111111111111,-16.375,-15.0,-36.5625,35,-0.0521240234375,0.00494384765625,0.0,0.9986572265625,359.9375,-0.5625,5.9375
1563493171.514997,359.9375,-0.5625,5.9375,-0.09,-1.02,9.75,0.03,0.03,-0.14,0.0,0.0011111111111111111,-0.0011111111111111111,-16.75,-14.25,-36.1875,35,-0.0521240234375,0.00494384765625,0.0,0.9986572265625,359.9375,-0.5625,5.9375
1563493171.558775,359.9375,-0.5625,5.9375,-0.09,-1.02,9.75,-0.05,0.04,-0.18,0.0022222222222222222,0.0033333333333333335,-0.0022222222222222222,-16.75,-14.25,-36.1875,35,-0.0521240234375,0.00494384765625,0.0,0.9986572265625,359.9375,-0.5625,5.9375
1563493171.605446,359.9375,-0.5625,5.9375,-0.09,-1.02,9.75,-0.02,0.02,-0.15,0.0033333333333333335,0.0,0.0044444444444444444,-16.75,-15.375,-37.0,35,-0.0521240234375,0.00494384765625,0.0,0.9986572265625,359.9375,-0.5625,5.9375
1563493171.648221,359.9375,-0.5625,5.9375,-0.09,-1.02,9.75,0.08,0.01,-0.13,0.0011111111111111111,0.0011111111111111111,0.0022222222222222222,-17.875,-15.0,-36.5625,35,-0.0521240234375,0.00494384765625,0.0,0.9986572265625,359.9375,-0.5625,5.9375
1563493171.687521,359.9375,-0.5625,5.9375,-0.09,-1.02,9.75,0.0,0.03,-0.16,0.0,0.0033333333333333335,0.0011111111111111111,-16.75,-13.875,-37.375,35,-0.0521240234375,0.00494384765625,0.0,0.9986572265625,359.9375,-0.5625,5.9375
1563493171.725809,359.9375,-0.5625,5.9375,-0.09,-1.02,9.75,-0.05,0.04,-0.14,0.0011111111111111111,0.0,0.0,-17.1875,-15.375,-36.5625,35,-0.0521240234375,0.00494384765625,0.0,0.9986572265625,359.9375,-0.5625,5.9375
1563493171.765994,359.9375,-0.5625,5.9375,-0.09,-1.02,9.75,0.0,0.0,-0.15,0.0,-0.0011111111111111111,-0.0011111111111111111,-17.1875,-14.25,-36.5625,35,-0.0521240234375,0.00494384765625,0.0,0.9986572265625,359.9375,-0.5625,5.9375
1563493171.809729,359.9375,-0.5625,5.9375,-0.09,-1.02,9.75,0.01,0.01,-0.16,0.0011111111111111111,0.0011111111111111111,0.0,-17.1875,-14.25,-36.5625,35,-0.0521240234375,0.00494384765625,0.0,0.9986572265625,359.9375,-0.5625,5.9375
1563493171.850787,359.9375,-0.5625,5.9375,-0.09,-1.02,9.75,-0.01,0.02,-0.12,0.0011111111111111111,0.0,0.0022222222222222222,-15.6875,-14.5625,-36.5625,35,-0.0521240234375,0.00494384765625,0.0,0.9986572265625,359.9375,-0.5625,5.9375
1563493171.890065,359.9375,-0.5625,5.9375,-0.09,-1.02,9.75,0.03,0.01,-0.15,0.0011111111111111111,-0.0022222222222222222,0.0,-16.75,-16.0625,-36.5625,35,-0.0521240234375,0.00494384765625,0.0,0.9986572265625,359.9375,-0.5625,5.9375
1563493171.928484,359.9375,-0.5625,5.9375,-0.09,-1.02,9.75,-0.02,0.01,-0.16,0.0022222222222222222,-0.0022222222222222222,0.0022222222222222222,-17.1875,-15.75,-36.5625,35,-0.0521240234375,0.00494384765625,0.0,0.9986572265625,359.9375,-0.5625,5.9375
1563493171.966707,359.9375,-0.5625,5.9375,-0.09,-1.02,9.75,-0.01,0.02,-0.12,0.0,0.0011111111111111111,-0.0011111111111111111,-16.75,-15.375,-37.0,35,-0.0521240234375,0.00494384765625,0.0,0.9986572265625,359.9375,-0.5625,5.9375
1563493172.010633,359.9375,-0.5625,5.9375,-0.09,-1.02,9.75,0.0,0.03,-0.15,0.0011111111111111111,0.0,-0.0022222222222222222,-16.75,-15.375,-37.0,35,-0.0521240234375,0.00494384765625,0.0,0.9986572265625,359.9375,-0.5625,5.9375
1563493172.051611,359.9375,-0.5625,5.9375,-0.09,-1.02,9.75,-0.02,0.01,-0.16,-0.0022222222222222222,0.0022222222222222222,-0.0022222222222222222,-16.75,-14.5625,-35.375,35,-0.0521240234375,0.00494384765625,0.0,0.9986572265625,359.9375,-0.5625,5.9375
1563493172.09086,359.9375,-0.5625,5.9375,-0.09,-1.02,9.75,-0.03,-0.01,-0.19,-0.0022222222222222222,0.0,-0.0022222222222222222,-17.1875,-14.25,-36.1875,35,-0.0521240234375,0.00494384765625,0.0,0.9986572265625,359.9375,-0.5625,5.9375
1563493172.129335,359.9375,-0.5625,5.9375,-0.09,-1.02,9.75,-0.01,0.0,-0.2,-0.0022222222222222222,0.0011111111111111111,-0.0011111111111111111,-16.375,-15.375,-36.5625,35,-0.0521240234375,0.00494384765625,0.0,0.9986572265625,359.9375,-0.5625,5.9375
1563493172.169428,359.9375,-0.5625,5.9375,-0.09,-1.02,9.75,0.03,0.03,-0.15,0.0,0.0,0.0,-16.75,-14.25,-36.5625,35,-0.0521240234375,0.00494384765625,0.0,0.9986572265625,359.9375,-0.5625,5.9375
1563493172.211384,359.9375,-0.5625,5.9375,-0.09,-1.02,9.75,0.0,0.01,-0.15,0.0,-0.0011111111111111111,-0.0022222222222222222,-16.75,-14.25,-36.5625,35,-0.0521240234375,0.00494384765625,0.0,0.9986572265625,359.9375,-0.5625,5.9375
1563493172.252445,359.9375,-0.5625,5.9375,-0.09,-1.02,9.75,0.0,0.01,-0.16,-0.0011111111111111111,0.0011111111111111111,0.0011111111111111111,-16.75,-14.25,-36.1875,35,-0.0521240234375,0.00494384765625,0.0,0.9986572265625,359.9375,-0.5625,5.9375
1563493172.291707,359.9375,-0.5625,5.9375,-0.09,-1.02,9.75,-0.01,0.01,-0.15,0.0011111111111111111,0.0033333333333333335,-0.0033333333333333335,-17.1875,-15.0,-35.75,35,-0.0521240234375,0.00494384765625,0.0,0.9986572265625,359.9375,-0.5625,5.9375
1563493172.330083,359.9375,-0.5625,5.9375,-0.09,-1.02,9.75,0.0,0.0,-0.16,0.0,-0.0011111111111111111,0.0011111111111111111,-16.375,-13.875,-35.375,35,-0.0521240234375,0.00494384765625,0.0,0.9986572265625,359.9375,-0.5625,5.9375
1563493172.36829,359.9375,-0.5625,5.9375,-0.09,-1.02,9.75,-0.01,0.02,-0.13,-0.0011111111111111111,0.0,-0.0022222222222222222,-17.1875,-13.875,-37.0,35,-0.0521240234375,0.00494384765625,0.0,0.9986572265625,359.9375,-0.5625,5.9375
1563493172.412206,359.9375,-0.5625,5.9375,-0.09,-1.02,9.75,0.0,0.01,-0.13,0.0,-0.0011111111111111111,-0.0022222222222222222,-17.1875,-13.875,-37.0,35,-0.0521240234375,0.00494384765625,0.0,0.9986572265625,359.9375,-0.5625,5.9375
1563493172.453685,359.9375,-0.5625,5.9375,-0.09,-1.02,9.75,0.04,0.0,-0.18,0.0,0.0011111111111111111,-0.0011111111111111111,-16.375,-14.25,-36.5625,35,-0.0521240234375,0.00494384765625,0.0,0.9986572265625,359.9375,-0.5625,5.9375
1563493172.492515,359.9375,-0.5625,5.9375,-0.09,-1.02,9.75,0.03,0.02,-0.15,0.0,-0.0022222222222222222,-0.0022222222222222222,-16.75,-15.0,-37.0,35,-0.0521240234375,0.00494384765625,0.0,0.9986572265625,359.9375,-0.5625,5.9375
1563493172.531013,359.9375,-0.5625,5.9375,-0.09,-1.02,9.75,-0.03,0.02,-0.18,0.0,-0.0011111111111111111,-0.0022222222222222222,-16.75,-14.5625,-35.75,35,-0.0521240234375,0.00494384765625,0.0,0.9986572265625,359.9375,-0.5625,5.9375
1563493172.56915,359.9375,-0.5625,5.9375,-0.09,-1.02,9.75,-0.04,0.01,-0.16,0.0,0.0022222222222222222,-0.0022222222222222222,-16.0625,-15.375,-37.0,35,-0.0521240234375,0.00494384765625,0.0,0.9986572265625,359.9375,-0.5625,5.9375
1563493172.613007,359.9375,-0.5625,5.9375,-0.09,-1.02,9.75,0.0,0.01,-0.17,0.0,0.0022222222222222222,0.0,-16.0625,-15.375,-37.0,35,-0.0521240234375,0.00494384765625,0.0,0.9986572265625,359.9375,-0.5625,5.9375
1563493172.65407,359.9375,-0.5625,5.9375,-0.09,-1.02,9.75,0.03,0.01,-0.15,0.0,0.0033333333333333335,-0.0011111111111111111,-16.375,-15.375,-35.75,35,-0.0521240234375,0.00494384765625,0.0,0.9986572265625,359.9375,-0.5625,5.9375
1563493172.69332,359.9375,-0.5625,5.9375,-0.09,-1.02,9.75,0.01,0.01,-0.14,-0.0022222222222222222,0.0011111111111111111,-0.0044444444444444444,-16.75,-14.25,-36.5625,35,-0.0521240234375,0.00494384765625,0.0,0.9986572265625,359.9375,-0.5625,5.9375
1563493172.731745,359.9375,-0.5625,5.9375,-0.09,-1.02,9.75,0.02,0.01,-0.19,0.0,0.0044444444444444444,-0.0011111111111111111,-16.0625,-15.375,-35.75,35,-0.0521240234375,0.00494384765625,0.0,0.9986572265625,359.9375,-0.5625,5.9375
1563493172.769947,359.9375,-0.5625,5.9375,-0.09,-1.02,9.75,0.01,0.02,-0.13,-0.0022222222222222222,0.0022222222222222222,-0.0011111111111111111,-16.0625,-14.5625,-36.5625,35,-0.0521240234375,0.00494384765625,0.0,0.9986572265625,359.9375,-0.5625,5.9375
1563493172.813866,359.9375,-0.5625,5.9375,-0.09,-1.02,9.75,0.0,0.03,-0.12,0.0011111111111111111,0.0011111111111111111,-0.0022222222222222222,-16.0625,-14.5625,-36.5625,35,-0.0521240234375,0.00494384765625,0.0,0.9986572265625,359.9375,-0.5625,5.9375
1563493172.854874,359.9375,-0.5625,5.9375,-0.09,-1.02,9.75,0.0,0.01,-0.14,-0.0011111111111111111,0.0,-0.0011111111111111111,-16.75,-14.5625,-35.75,35,-0.0521240234375,0.00494384765625,0.0,0.9986572265625,359.9375,-0.5625,5.9375
1563493172.894098,359.9375,-0.5625,5.9375,-0.09,-1.02,9.75,0.01,0.02,-0.17,0.0011111111111111111,0.0044444444444444444,-0.0022222222222222222,-17.1875,-15.0,-35.375,35,-0.0521240234375,0.00494384765625,0.0,0.9986572265625,359.9375,-0.5625,5.9375
1563493172.932657,359.9375,-0.5625,5.9375,-0.09,-1.02,9.75,0.0,0.01,-0.17,0.0022222222222222222,0.0011111111111111111,-0.0011111111111111111,-17.875,-15.0,-36.1875,35,-0.0521240234375,0.00494384765625,0.0,0.9986572265625,359.9375,-0.5625,5.9375
1563493172.972612,359.9375,-0.5625,5.9375,-0.09,-1.02,9.75,-0.01,0.01,-0.18,-0.0011111111111111111,0.0011111111111111111,-0.0022222222222222222,-17.1875,-14.25,-37.0,35,-0.0521240234375,0.00494384765625,0.0,0.9986572265625,359.9375,-0.5625,5.9375
1563493173.016744,359.9375,-0.5625,5.9375,-0.09,-1.02,9.75,0.0,0.03,-0.14,-0.0011111111111111111,-0.0011111111111111111,0.0011111111111111111,-16.75,-14.5625,-36.5625,35,-0.0521240234375,0.00494384765625,0.0,0.9986572265625,359.9375,-0.5625,5.9375
1563493173.061343,359.9375,-0.5625,5.9375,-0.09,-1.02,9.75,0.0,0.01,-0.16,0.0011111111111111111,-0.0011111111111111111,0.0,-16.75,-14.5625,-36.5625,35,-0.0521240234375,0.00494384765625,0.0,0.9986572265625,359.9375,-0.5625,5.9375
1563493173.104172,359.9375,-0.5625,5.9375,-0.09,-1.02,9.75,-0.01,0.02,-0.15,0.0,0.0,0.0011111111111111111,-17.1875,-14.5625,-37.375,35,-0.0521240234375,0.00494384765625,0.0,0.9986572265625,359.9375,-0.5625,5.9375
1563493173.143528,359.9375,-0.5625,5.9375,-0.09,-1.02,9.75,0.0,0.01,-0.17,-0.0011111111111111111,-0.0022222222222222222,-0.0033333333333333335,-17.1875,-14.5625,-37.0,35,-0.0521240234375,0.00494384765625,0.0,0.9986572265625,359.9375,-0.5625,5.9375
1563493173.183683,359.9375,-0.5625,5.9375,-0.09,-1.02,9.75,-0.01,0.01,-0.17,-0.0011111111111111111,-0.0011111111111111111,0.0011111111111111111,-16.375,-15.75,-37.375,35,-0.0521240234375,0.00494384765625,0.0,0.9986572265625,359.9375,-0.5625,5.9375
1563493173.223772,359.9375,-0.5625,5.9375,-0.09,-1.02,9.75,0.03,0.03,-0.18,0.0011111111111111111,0.0,-0.0011111111111111111,-16.75,-15.0,-37.75,35,-0.0521240234375,0.00494384765625,0.0,0.9986572265625,359.9375,-0.5625,5.9375
1563493173.265705,359.9375,-0.5625,5.9375,-0.09,-1.02,9.75,0.0,0.02,-0.14,0.0011111111111111111,-0.0022222222222222222,0.0011111111111111111,-16.75,-15.0,-37.75,35,-0.0521240234375,0.00494384765625,0.0,0.9986572265625,359.9375,-0.5625,5.9375
1563493173.306735,359.9375,-0.5625,5.9375,-0.09,-1.02,9.75,-0.03,0.01,-0.13,0.0,-0.0011111111111111111,-0.0011111111111111111,-16.375,-14.25,-36.5625,35,-0.0521240234375,0.00494384765625,0.0,0.9986572265625,359.9375,-0.5625,5.9375
1563493173.346002,359.9375,-0.5625,5.9375,-0.09,-1.02,9.75,0.01,0.01,-0.16,0.0,0.0,0.0022222222222222222,-17.1875,-14.5625,-36.1875,35,-0.0521240234375,0.00494384765625,0.0,0.9986572265625,359.9375,-0.5625,5.9375
1563493173.384465,359.9375,-0.5625,5.9375,-0.09,-1.02,9.75,0.03,0.01,-0.15,0.0,-0.0011111111111111111,0.0011111111111111111,-17.5625,-14.5625,-36.5625,35,-0.0521240234375,0.00494384765625,0.0,0.9986572265625,359.9375,-0.5625,5.9375
1563493173.422781,359.9375,-0.5625,5.9375,-0.09,-1.02,9.75,0.02,0.01,-0.16,-0.0011111111111111111,-0.0011111111111111111,-0.0011111111111111111,-16.75,-15.375,-37.0,35,-0.0521240234375,0.00494384765625,0.0,0.9986572265625,359.9375,-0.5625,5.9375
1563493173.466504,359.9375,-0.5625,5.9375,-0.09,-1.02,9.75,-0.04,0.01,-0.16,0.0,-0.0011111111111111111,-0.0011111111111111111,-16.75,-15.375,-37.0,35,-0.0521240234375,0.00494384765625,0.0,0.9986572265625,359.9375,-0.5625,5.9375
1563493173.507594,359.9375,-0.5625,5.9375,-0.09,-1.02,9.75,0.02,0.02,-0.16,0.0,0.0011111111111111111,0.0011111111111111111,-16.0625,-15.0,-35.75,35,-0.0521240234375,0.00494384765625,0.0,0.9986572265625,359.9375,-0.5625,5.9375
1563493173.546831,359.9375,-0.5625,5.9375,-0.09,-1.02,9.75,0.0,0.01,-0.16,-0.0011111111111111111,0.0022222222222222222,0.0011111111111111111,-17.1875,-13.875,-37.375,35,-0.0521240234375,0.00494384765625,0.0,0.9986572265625,359.9375,-0.5625,5.9375
1563493173.585301,359.9375,-0.5625,5.9375,-0.09,-1.02,9.75,-0.01,0.01,-0.16,0.0,0.0011111111111111111,0.0,-17.1875,-15.375,-36.5625,35,-0.0521240234375,0.00494384765625,0.0,0.9986572265625,359.9375,-0.5625,5.9375
1563493173.623553,359.9375,-0.5625,5.9375,-0.09,-1.02,9.75,-0.03,0.03,-0.14,0.0,0.0011111111111111111,0.0011111111111111111,-17.5625,-14.25,-36.1875,35,-0.0521240234375,0.00494384765625,0.0,0.9986572265625,359.9375,-0.5625,5.9375
1563493173.667346,359.9375,-0.5625,5.9375,-0.09,-1.02,9.75,0.0,0.0,-0.14,0.0,0.0,0.0011111111111111111,-17.5625,-14.25,-36.1875,35,-0.0521240234375,0.00494384765625,0.0,0.9986572265625,359.9375,-0.5625,5.9375
1563493173.713999,359.9375,-0.5625,5.9375,-0.09,-1.02,9.75,0.03,0.01,-0.17,0.0022222222222222222,0.0,0.0011111111111111111,-16.375,-15.375,-35.375,35,-0.0521240234375,0.00494384765625,0.0,0.9986572265625,359.9375,-0.5625,5.9375
1563493173.756723,359.9375,-0.5625,5.9375,-0.09,-1.02,9.75,-0.01,0.02,-0.15,0.0,0.0011111111111111111,-0.0011111111111111111,-16.75,-14.25,-37.0,35,-0.0521240234375,0.00494384765625,0.0,0.9986572265625,359.9375,-0.5625,5.9375
1563493173.796024,359.9375,-0.5625,5.9375,-0.09,-1.02,9.75,-0.02,0.01,-0.16,0.0,0.0011111111111111111,-0.0022222222222222222,-16.75,-14.5625,-36.1875,35,-0.0521240234375,0.00494384765625,0.0,0.9986572265625,359.9375,-0.5625,5.9375
1563493173.834606,359.9375,-0.5625,5.9375,-0.09,-1.02,9.75,0.0,0.01,-0.17,0.0011111111111111111,-0.0011111111111111111,0.0033333333333333335,-16.75,-14.25,-36.1875,35,-0.0521240234375,0.00494384765625,0.0,0.9986572265625,359.9375,-0.5625,5.9375
1563493173.874594,359.9375,-0.5625,5.9375,-0.09,-1.02,9.75,0.0,0.04,-0.15,0.0011111111111111111,-0.0022222222222222222,0.0022222222222222222,-17.1875,-14.25,-36.1875,35,-0.0521240234375,0.00494384765625,0.0,0.9986572265625,359.9375,-0.5625,5.9375
1563493173.918361,359.9375,-0.5625,5.9375,-0.09,-1.02,9.75,0.0,-0.01,-0.13,-0.0022222222222222222,0.0022222222222222222,0.0011111111111111111,-17.1875,-14.25,-36.1875,35,-0.0521240234375,0.00494384765625,0.0,0.9986572265625,359.9375,-0.5625,5.9375
1563493173.965056,359.9375,-0.5625,5.9375,-0.09,-1.02,9.75,0.0,0.01,-0.13,0.0011111111111111111,0.0011111111111111111,0.0033333333333333335,-16.75,-14.5625,-35.375,35,-0.0521240234375,0.00494384765625,0.0,0.9986572265625,359.9375,-0.5625,5.9375
1563493174.007813,359.9375,-0.5625,5.9375,-0.09,-1.02,9.75,0.03,0.01,-0.14,0.0011111111111111111,0.0,-0.0022222222222222222,-17.5625,-15.0,-36.5625,35,-0.0521240234375,0.00494384765625,0.0,0.9986572265625,359.9375,-0.5625,5.9375
1563493174.047187,359.9375,-0.5625,5.9375,-0.09,-1.02,9.75,-0.02,0.0,-0.14,-0.0011111111111111111,0.0011111111111111111,-0.0011111111111111111,-16.75,-14.5625,-36.875,35,-0.0521240234375,0.00494384765625,0.0,0.9986572265625,359.9375,-0.5625,5.9375
1563493174.08547,359.9375,-0.5625,5.9375,-0.09,-1.02,9.75,-0.01,0.01,-0.16,0.0011111111111111111,-0.0011111111111111111,0.0,-16.75,-15.0,-37.0,35,-0.0521240234375,0.00494384765625,0.0,0.9986572265625,359.9375,-0.5625,5.9375
1563493174.125737,359.9375,-0.5625,5.9375,-0.09,-1.02,9.75,0.0,0.06,-0.16,-0.0011111111111111111,0.0022222222222222222,-0.0011111111111111111,-16.375,-15.0,-37.375,35,-0.0521240234375,0.00494384765625,0.0,0.9986572265625,359.9375,-0.5625,5.9375
1563493174.16945,359.9375,-0.5625,5.9375,-0.09,-1.02,9.75,0.0,0.01,-0.16,-0.0011111111111111111,0.0011111111111111111,-0.0011111111111111111,-16.375,-15.0,-37.375,35,-0.0521240234375,0.00494384765625,0.0,0.9986572265625,359.9375,-0.5625,5.9375
1563493174.210569,359.9375,-0.5625,5.9375,-0.09,-1.02,9.75,-0.04,0.01,-0.13,0.0,0.0011111111111111111,-0.0011111111111111111,-17.5625,-15.0,-36.5625,35,-0.0521240234375,0.00494384765625,0.0,0.9986572265625,359.9375,-0.5625,5.9375
1563493174.249713,359.9375,-0.5625,5.9375,-0.09,-1.02,9.75,-0.03,0.02,-0.14,0.0,-0.0011111111111111111,0.0,-16.0625,-15.0,-36.5625,35,-0.0521240234375,0.00494384765625,0.0,0.9986572265625,359.9375,-0.5625,5.9375
1563493174.288253,359.9375,-0.5625,5.9375,-0.09,-1.02,9.75,0.02,0.01,-0.16,0.0011111111111111111,0.0,0.0033333333333333335,-15.25,-15.0,-37.0,35,-0.0521240234375,0.00494384765625,0.0,0.9986572265625,359.9375,-0.5625,5.9375
1563493174.326533,359.9375,-0.5625,5.9375,-0.09,-1.02,9.75,0.02,0.0,-0.14,0.0,0.0022222222222222222,0.0,-15.6875,-15.0,-37.75,35,-0.0521240234375,0.00494384765625,0.0,0.9986572265625,359.9375,-0.5625,5.9375
1563493174.370293,359.9375,-0.5625,5.9375,-0.09,-1.02,9.75,0.0,0.01,-0.15,0.0011111111111111111,0.0022222222222222222,0.0,-15.6875,-15.0,-37.75,35,-0.0521240234375,0.00494384765625,0.0,0.9986572265625,359.9375,-0.5625,5.9375
1563493174.411256,359.9375,-0.5625,5.9375,-0.09,-1.02,9.75,-0.04,0.02,-0.15,0.0,0.0,-0.0011111111111111111,-17.1875,-14.25,-37.0,35,-0.0521240234375,0.00494384765625,0.0,0.9986572265625,359.9375,-0.5625,5.9375
1563493174.450623,359.9375,-0.5625,5.9375,-0.09,-1.02,9.75,0.02,0.0,-0.14,-0.0011111111111111111,0.0011111111111111111,0.0011111111111111111,-16.375,-15.0,-37.0,35,-0.0521240234375,0.00494384765625,0.0,0.9986572265625,359.9375,-0.5625,5.9375
1563493174.488964,359.9375,-0.5625,5.9375,-0.09,-1.02,9.75,0.03,0.01,-0.16,0.0,0.0,0.0,-16.375,-16.0625,-37.375,35,-0.0521240234375,0.00494384765625,0.0,0.9986572265625,359.9375,-0.5625,5.9375
1563493174.527277,359.9375,-0.5625,5.9375,-0.09,-1.02,9.75,-0.01,0.02,-0.15,0.0,-0.0033333333333333335,0.0,-17.1875,-15.375,-36.1875,35,-0.0521240234375,0.00494384765625,0.0,0.9986572265625,359.9375,-0.5625,5.9375
1563493174.571086,359.9375,-0.5625,5.9375,-0.09,-1.02,9.75,0.0,0.02,-0.14,-0.0033333333333333335,0.0022222222222222222,-0.0022222222222222222,-17.1875,-15.375,-36.1875,35,-0.0521240234375,0.00494384765625,0.0,0.9986572265625,359.9375,-0.5625,5.9375
1563493174.612153,359.9375,-0.5625,5.9375,-0.09,-1.02,9.75,0.06,0.0,-0.15,0.0011111111111111111,0.0022222222222222222,-0.0011111111111111111,-16.375,-14.25,-37.0,35,-0.0521240234375,0.00494384765625,0.0,0.9986572265625,359.9375,-0.5625,5.9375
1563493174.651396,359.9375,-0.5625,5.9375,-0.09,-1.02,9.75,0.01,0.03,-0.15,0.0011111111111111111,-0.0011111111111111111,0.0022222222222222222,-16.375,-15.0,-37.375,35,-0.0521240234375,0.00494384765625,0.0,0.9986572265625,359.9375,-0.5625,5.9375
1563493174.691602,359.9375,-0.5625,5.9375,-0.09,-1.02,9.75,-0.01,0.04,-0.18,0.0,0.0011111111111111111,-0.0033333333333333335,-17.1875,-15.375,-37.0,35,-0.0521240234375,0.00494384765625,0.0,0.9986572265625,359.9375,-0.5625,5.9375
1563493174.731779,359.9375,-0.5625,5.9375,-0.09,-1.02,9.75,0.02,0.0,-0.16,-0.0022222222222222222,-0.0011111111111111111,0.0,-17.1875,-15.0,-38.1875,35,-0.0521240234375,0.00494384765625,0.0,0.9986572265625,359.9375,-0.5625,5.9375
1563493174.77826,359.9375,-0.5625,5.9375,-0.09,-1.02,9.75,0.02,0.02,-0.13,0.0,-0.0011111111111111111,-0.0022222222222222222,-16.75,-14.25,-37.375,35,-0.0521240234375,0.00494384765625,0.0,0.9986572265625,359.9375,-0.5625,5.9375
1563493174.821936,359.9375,-0.5625,5.9375,-0.09,-1.02,9.75,0.0,0.0,-0.16,0.0,-0.0011111111111111111,-0.0022222222222222222,-16.75,-14.25,-37.375,35,-0.0521240234375,0.00494384765625,0.0,0.9986572265625,359.9375,-0.5625,5.9375
1563493174.863099,359.9375,-0.5625,5.9375,-0.09,-1.02,9.75,-0.02,0.01,-0.14,0.0011111111111111111,0.0022222222222222222,-0.0011111111111111111,-16.0625,-14.5625,-37.0,35,-0.0521240234375,0.00494384765625,0.0,0.9986572265625,359.9375,-0.5625,5.9375
1563493174.902428,359.9375,-0.5625,5.9375,-0.09,-1.02,9.75,0.02,0.0,-0.12,0.0,0.0011111111111111111,0.0,-16.0625,-15.0,-36.1875,35,-0.0521240234375,0.00494384765625,0.0,0.9986572265625,359.9375,-0.5625,5.9375
1563493174.940898,359.9375,-0.5625,5.9375,-0.09,-1.02,9.75,0.01,0.02,-0.19,0.0011111111111111111,0.0011111111111111111,0.0011111111111111111,-17.1875,-14.5625,-37.0,35,-0.0521240234375,0.00494384765625,0.0,0.9986572265625,359.9375,-0.5625,5.9375
1563493174.980842,359.9375,-0.5625,5.9375,-0.09,-1.02,9.75,-0.02,0.02,-0.13,0.0,0.0011111111111111111,-0.0022222222222222222,-16.375,-15.375,-37.0,35,-0.0521240234375,0.00494384765625,0.0,0.9986572265625,359.9375,-0.5625,5.9375
1563493175.022978,359.9375,-0.5625,5.9375,-0.09,-1.02,9.75,-0.01,0.0,-0.14,0.0,0.0011111111111111111,-0.0011111111111111111,-16.375,-15.375,-37.0,35,-0.0521240234375,0.00494384765625,0.0,0.9986572265625,359.9375,-0.5625,5.9375
1563493175.063816,359.9375,-0.5625,5.9375,-0.09,-1.02,9.75,-0.01,0.0,-0.14,0.0011111111111111111,0.0022222222222222222,0.0022222222222222222,-17.1875,-14.25,-37.0,35,-0.0521240234375,0.00494384765625,0.0,0.9986572265625,359.9375,-0.5625,5.9375
1563493175.103184,359.9375,-0.5625,5.9375,-0.09,-1.02,9.75,0.0,0.01,-0.17,-0.0011111111111111111,0.0022222222222222222,-0.0022222222222222222,-17.5625,-16.0625,-37.0,35,-0.0521240234375,0.00494384765625,0.0,0.9986572265625,359.9375,-0.5625,5.9375
1563493175.141689,359.9375,-0.5625,5.9375,-0.09,-1.02,9.75,-0.01,0.04,-0.17,-0.0022222222222222222,0.0011111111111111111,-0.0033333333333333335,-17.1875,-13.875,-36.1875,35,-0.0521240234375,0.00494384765625,0.0,0.9986572265625,359.9375,-0.5625,5.9375
1563493175.181663,359.9375,-0.5625,5.9375,-0.09,-1.02,9.75,0.07,0.0,-0.14,0.0,-0.0011111111111111111,0.0,-16.75,-15.375,-37.0,35,-0.0521240234375,0.00494384765625,0.0,0.9986572265625,359.9375,-0.5625,5.9375
1563493175.223753,359.9375,-0.5625,5.9375,-0.09,-1.02,9.75,0.04,0.03,-0.13,0.0,0.0,0.0,-16.75,-15.375,-37.0,35,-0.0521240234375,0.00494384765625,0.0,0.9986572265625,359.9375,-0.5625,5.9375
1563493175.264754,359.9375,-0.5625,5.9375,-0.09,-1.02,9.75,-0.02,0.03,-0.17,0.0022222222222222222,-0.0011111111111111111,-0.0033333333333333335,-17.1875,-14.5625,-36.5625,35,-0.0521240234375,0.00494384765625,0.0,0.9986572265625,359.9375,-0.5625,5.9375
1563493175.304009,359.9375,-0.5625,5.9375,-0.09,-1.02,9.75,-0.01,-0.01,-0.17,0.0,0.0,0.0,-16.375,-14.5625,-37.375,35,-0.0521240234375,0.00494384765625,0.0,0.9986572265625,359.9375,-0.5625,5.9375
1563493175.342454,359.9375,-0.5625,5.9375,-0.09,-1.02,9.75,-0.01,0.02,-0.15,0.0011111111111111111,0.0011111111111111111,-0.0011111111111111111,-16.375,-14.5625,-36.5625,35,-0.0521240234375,0.00494384765625,0.0,0.9986572265625,359.9375,-0.5625,5.9375
1563493175.380628,359.9375,-0.5625,5.9375,-0.09,-1.02,9.75,0.03,0.03,-0.12,0.0,-0.0011111111111111111,0.0,-16.75,-14.5625,-37.375,35,-0.0521240234375,0.00494384765625,0.0,0.9986572265625,359.9375,-0.5625,5.9375
1563493175.424474,359.9375,-0.5625,5.9375,-0.09,-1.02,9.75,0.03,0.0,-0.15,-0.0011111111111111111,0.0,-0.0033333333333333335,-16.75,-14.5625,-37.375,35,-0.0521240234375,0.00494384765625,0.0,0.9986572265625,359.9375,-0.5625,5.9375
1563493175.466519,359.9375,-0.5625,5.9375,-0.09,-1.02,9.75,-0.02,0.0,-0.17,-0.0011111111111111111,0.0011111111111111111,0.0,-16.75,-14.25,-36.5625,35,-0.0521240234375,0.00494384765625,0.0,0.9986572265625,359.9375,-0.5625,5.9375
1563493175.504796,359.9375,-0.5625,5.9375,-0.09,-1.02,9.75,-0.06,0.01,-0.16,0.0,0.0011111111111111111,0.0011111111111111111,-16.375,-14.25,-36.5625,35,-0.0521240234375,0.00494384765625,0.0,0.9986572265625,359.9375,-0.5625,5.9375
1563493175.543248,359.9375,-0.5625,5.9375,-0.09,-1.02,9.75,0.0,0.01,-0.18,-0.0011111111111111111,-0.0011111111111111111,0.0011111111111111111,-17.5625,-15.375,-35.75,35,-0.0521240234375,0.00494384765625,0.0,0.9986572265625,359.9375,-0.5625,5.9375
1563493175.581396,359.9375,-0.5625,5.9375,-0.09,-1.02,9.75,0.02,0.01,-0.19,0.0,0.0,0.0044444444444444444,-17.1875,-15.0,-37.0,35,-0.0521240234375,0.00494384765625,0.0,0.9986572265625,359.9375,-0.5625,5.9375
1563493175.625239,359.9375,-0.5625,5.9375,-0.09,-1.02,9.75,0.0,0.03,-0.14,-0.0022222222222222222,0.0033333333333333335,0.0011111111111111111,-17.1875,-15.0,-37.0,35,-0.0521240234375,0.00494384765625,0.0,0.9986572265625,359.9375,-0.5625,5.9375
1563493175.666349,359.9375,-0.5625,5.9375,-0.09,-1.02,9.75,0.0,0.01,-0.15,0.0011111111111111111,0.0044444444444444444,0.0011111111111111111,-17.875,-15.375,-36.1875,35,-0.0521240234375,0.00494384765625,0.0,0.9986572265625,359.9375,-0.5625,5.9375
1563493175.70558,359.9375,-0.5625,5.9375,-0.09,-1.02,9.75,0.02,0.01,-0.18,0.0,-0.0022222222222222222,0.0011111111111111111,-16.75,-14.5625,-36.5625,35,-0.0521240234375,0.00494384765625,0.0,0.9986572265625,359.9375,-0.5625,5.9375
1563493175.744039,359.9375,-0.5625,5.9375,-0.09,-1.02,9.75,0.02,0.03,-0.17,-0.0011111111111111111,0.0011111111111111111,0.0,-17.1875,-14.5625,-37.0,35,-0.0521240234375,0.00494384765625,0.0,0.9986572265625,359.9375,-0.5625,5.9375
1563493175.782157,359.9375,-0.5625,5.9375,-0.09,-1.02,9.75,-0.01,0.01,-0.16,-0.0011111111111111111,-0.0011111111111111111,-0.0011111111111111111,-17.5625,-13.875,-37.75,35,-0.0521240234375,0.00494384765625,0.0,0.9986572265625,359.9375,-0.5625,5.9375
1563493175.826068,359.9375,-0.5625,5.9375,-0.09,-1.02,9.75,-0.01,0.0,-0.15,-0.0033333333333333335,0.0022222222222222222,0.0,-17.5625,-13.875,-37.75,35,-0.0521240234375,0.00494384765625,0.0,0.9986572265625,359.9375,-0.5625,5.9375
1563493175.86719,359.9375,-0.5625,5.9375,-0.09,-1.02,9.75,0.03,0.01,-0.14,0.0,0.0011111111111111111,0.0,-16.75,-15.0,-36.1875,35,-0.0521240234375,0.00494384765625,0.0,0.9986572265625,359.9375,-0.5625,5.9375
1563493175.906325,359.9375,-0.5625,5.9375,-0.09,-1.02,9.75,0.02,0.01,-0.16,0.0,0.0,0.0,-16.375,-15.0,-36.5625,35,-0.0521240234375,0.00494384765625,0.0,0.9986572265625,359.9375,-0.5625,5.9375
1563493175.944918,359.9375,-0.5625,5.9375,-0.09,-1.02,9.75,-0.03,0.02,-0.17,0.0,0.0,-0.0022222222222222222,-16.75,-14.5625,-37.375,35,-0.0521240234375,0.00494384765625,0.0,0.9986572265625,359.9375,-0.5625,5.9375
1563493175.98306,359.9375,-0.5625,5.9375,-0.09,-1.02,9.75,-0.05,0.02,-0.14,-0.0011111111111111111,-0.0022222222222222222,0.0033333333333333335,-17.5625,-15.375,-37.75,35,-0.0521240234375,0.00494384765625,0.0,0.9986572265625,359.9375,-0.5625,5.9375
1563493176.026869,359.9375,-0.5625,5.9375,-0.09,-1.02,9.75,0.02,0.01,-0.15,-0.0011111111111111111,-0.0011111111111111111,0.0,-17.5625,-15.375,-37.75,35,-0.0521240234375,0.00494384765625,0.0,0.9986572265625,359.9375,-0.5625,5.9375
1563493176.067914,359.9375,-0.5625,5.9375,-0.09,-1.02,9.75,0.04,0.02,-0.15,0.0011111111111111111,0.0022222222222222222,0.0011111111111111111,-16.375,-15.0,-36.5625,35,-0.0521240234375,0.00494384765625,0.0,0.9986572265625,359.9375,-0.5625,5.9375
1563493176.107187,359.9375,-0.5625,5.9375,-0.09,-1.02,9.75,0.0,0.02,-0.15,0.0011111111111111111,0.0011111111111111111,0.0011111111111111111,-16.75,-14.5625,-36.1875,35,-0.0521240234375,0.00494384765625,0.0,0.9986572265625,359.9375,-0.5625,5.9375
1563493176.145651,359.9375,-0.5625,5.9375,-0.09,-1.02,9.75,-0.04,0.01,-0.17,0.0011111111111111111,-0.0011111111111111111,0.0011111111111111111,-16.75,-15.375,-37.0,35,-0.0521240234375,0.00494384765625,0.0,0.9986572265625,359.9375,-0.5625,5.9375
1563493176.183954,359.9375,-0.5625,5.9375,-0.09,-1.02,9.75,0.0,0.02,-0.14,0.0033333333333333335,-0.0044444444444444444,0.0011111111111111111,-16.75,-14.5625,-36.5625,35,-0.0521240234375,0.00494384765625,0.0,0.9986572265625,359.9375,-0.5625,5.9375
1563493176.227648,359.9375,-0.5625,5.9375,-0.09,-1.02,9.75,0.05,0.01,-0.13,0.0,0.0044444444444444444,0.0011111111111111111,-16.75,-14.5625,-36.5625,35,-0.0521240234375,0.00494384765625,0.0,0.9986572265625,359.9375,-0.5625,5.9375
1563493176.268883,359.9375,-0.5625,5.9375,-0.09,-1.02,9.75,0.02,0.02,-0.15,0.0011111111111111111,0.0022222222222222222,-0.0011111111111111111,-16.75,-15.375,-36.5625,35,-0.0521240234375,0.00494384765625,0.0,0.9986572265625,359.9375,-0.5625,5.9375
1563493176.307998,359.9375,-0.5625,5.9375,-0.09,-1.02,9.75,-0.04,0.02,-0.14,0.0,0.0011111111111111111,-0.0011111111111111111,-16.375,-13.875,-35.375,35,-0.0521240234375,0.00494384765625,0.0,0.9986572265625,359.9375,-0.5625,5.9375
1563493176.346452,359.9375,-0.5625,5.9375,-0.09,-1.02,9.75,-0.01,0.01,-0.17,0.0,0.0011111111111111111,0.0011111111111111111,-16.75,-13.875,-36.5625,35,-0.0521240234375,0.00494384765625,0.0,0.9986572265625,359.9375,-0.5625,5.9375
1563493176.384544,359.9375,-0.5625,5.9375,-0.09,-1.02,9.75,0.01,0.02,-0.14,0.0,-0.0022222222222222222,-0.0011111111111111111,-16.75,-14.5625,-37.375,35,-0.0521240234375,0.00494384765625,0.0,0.9986572265625,359.9375,-0.5625,5.9375
1563493176.428463,359.9375,-0.5625,5.9375,-0.09,-1.02,9.75,0.03,0.01,-0.16,0.0011111111111111111,-0.0011111111111111111,0.0,-16.75,-14.5625,-37.375,35,-0.0521240234375,0.00494384765625,0.0,0.9986572265625,359.9375,-0.5625,5.9375
1563493176.470063,359.9375,-0.5625,5.9375,-0.09,-1.02,9.75,-0.02,0.01,-0.13,0.0011111111111111111,0.0022222222222222222,0.0,-17.1875,-14.5625,-37.375,35,-0.0521240234375,0.00494384765625,0.0,0.9986572265625,359.9375,-0.5625,5.9375
1563493176.508851,359.9375,-0.5625,5.9375,-0.09,-1.02,9.75,0.0,0.02,-0.18,0.0033333333333333335,0.0033333333333333335,0.0022222222222222222,-17.5625,-15.0,-37.0,35,-0.0521240234375,0.00494384765625,0.0,0.9986572265625,359.9375,-0.5625,5.9375
1563493176.547228,359.9375,-0.5625,5.9375,-0.09,-1.02,9.75,0.01,0.01,-0.18,0.0022222222222222222,0.0,0.0022222222222222222,-17.875,-15.0,-37.375,35,-0.0521240234375,0.00494384765625,0.0,0.9986572265625,359.9375,-0.5625,5.9375
1563493176.587328,359.9375,-0.5625,5.9375,-0.09,-1.02,9.75,0.0,0.02,-0.15,0.0011111111111111111,0.0011111111111111111,0.0,-16.75,-14.25,-37.375,35,-0.0521240234375,0.00494384765625,0.0,0.9986572265625,359.9375,-0.5625,5.9375
1563493176.629274,359.9375,-0.5625,5.9375,-0.09,-1.02,9.75,-0.03,0.02,-0.13,0.0011111111111111111,0.0011111111111111111,0.0022222222222222222,-16.75,-14.25,-37.375,35,-0.0521240234375,0.00494384765625,0.0,0.9986572265625,359.9375,-0.5625,5.9375
1563493176.670438,359.9375,-0.5625,5.9375,-0.09,-1.02,9.75,0.02,0.0,-0.15,0.0011111111111111111,0.0022222222222222222,0.0011111111111111111,-17.5625,-14.5625,-36.1875,35,-0.0521240234375,0.00494384765625,0.0,0.9986572265625,359.9375,-0.5625,5.9375
1563493176.709603,359.9375,-0.5625,5.9375,-0.09,-1.02,9.75,0.04,0.01,-0.17,0.0,0.0,0.0,-16.375,-14.25,-36.5625,35,-0.0521240234375,0.00494384765625,0.0,0.9986572265625,359.9375,-0.5625,5.9375
1563493176.748011,359.9375,-0.5625,5.9375,-0.09,-1.02,9.75,0.01,0.0,-0.17,0.0022222222222222222,0.0,-0.0011111111111111111,-16.75,-15.375,-37.0,35,-0.0521240234375,0.00494384765625,0.0,0.9986572265625,359.9375,-0.5625,5.9375
1563493176.786345,359.9375,-0.5625,5.9375,-0.09,-1.02,9.75,-0.03,0.03,-0.15,0.0011111111111111111,0.0011111111111111111,0.0,-16.375,-15.75,-37.75,35,-0.0521240234375,0.00494384765625,0.0,0.9986572265625,359.9375,-0.5625,5.9375
1563493176.830148,359.9375,-0.5625,5.9375,-0.09,-1.02,9.75,-0.01,0.01,-0.14,0.0,-0.0022222222222222222,0.0011111111111111111,-16.375,-15.75,-37.75,35,-0.0521240234375,0.00494384765625,0.0,0.9986572265625,359.9375,-0.5625,5.9375
1563493176.871082,359.9375,-0.5625,5.9375,-0.09,-1.02,9.75,0.02,0.01,-0.15,0.0011111111111111111,0.0033333333333333335,0.0022222222222222222,-16.375,-15.375,-36.5625,35,-0.0521240234375,0.00494384765625,0.0,0.9986572265625,359.9375,-0.5625,5.9375
1563493176.910475,359.9375,-0.5625,5.9375,-0.09,-1.02,9.75,0.0,0.03,-0.18,0.0022222222222222222,0.0011111111111111111,0.0011111111111111111,-17.5625,-15.0,-38.1875,35,-0.0521240234375,0.00494384765625,0.0,0.9986572265625,359.9375,-0.5625,5.9375
1563493176.948948,359.9375,-0.5625,5.9375,-0.09,-1.02,9.75,0.0,0.01,-0.16,-0.0011111111111111111,-0.0011111111111111111,0.0011111111111111111,-16.375,-14.5625,-36.5625,35,-0.0521240234375,0.00494384765625,0.0,0.9986572265625,359.9375,-0.5625,5.9375
1563493176.988922,359.9375,-0.5625,5.9375,-0.09,-1.02,9.75,-0.02,0.0,-0.15,0.0011111111111111111,0.0,0.0,-16.75,-15.0,-36.5625,35,-0.0521240234375,0.00494384765625,0.0,0.9986572265625,359.9375,-0.5625,5.9375
1563493177.030883,359.9375,-0.5625,5.9375,-0.09,-1.02,9.75,0.0,0.01,-0.16,0.0,0.0022222222222222222,0.0011111111111111111,-16.75,-15.0,-36.5625,35,-0.0521240234375,0.00494384765625,0.0,0.9986572265625,359.9375,-0.5625,5.9375
1563493177.072004,359.9375,-0.5625,5.9375,-0.09,-1.02,9.75,0.01,0.01,-0.15,0.0011111111111111111,0.0033333333333333335,0.0,-16.375,-14.5625,-36.5625,35,-0.0521240234375,0.00494384765625,0.0,0.9986572265625,359.9375,-0.5625,5.9375
1563493177.111209,359.9375,-0.5625,5.9375,-0.09,-1.02,9.75,0.0,0.01,-0.16,-0.0011111111111111111,0.0,-0.0022222222222222222,-17.1875,-15.375,-37.375,35,-0.0521240234375,0.00494384765625,0.0,0.9986572265625,359.9375,-0.5625,5.9375
1563493177.149674,359.9375,-0.5625,5.9375,-0.09,-1.02,9.75,0.0,0.01,-0.18,-0.0011111111111111111,0.0,-0.0011111111111111111,-16.0625,-15.0,-37.0,35,-0.0521240234375,0.00494384765625,0.0,0.9986572265625,359.9375,-0.5625,5.9375
1563493177.188008,359.9375,-0.5625,5.9375,-0.09,-1.02,9.75,0.0,0.03,-0.11,0.0,0.0,0.0,-16.375,-14.25,-37.375,35,-0.0521240234375,0.00494384765625,0.0,0.9986572265625,359.9375,-0.5625,5.9375
1563493177.231813,359.9375,-0.5625,5.9375,-0.09,-1.02,9.75,-0.01,0.01,-0.11,0.0,0.0011111111111111111,-0.0022222222222222222,-16.375,-14.25,-37.375,35,-0.0521240234375,0.00494384765625,0.0,0.9986572265625,359.9375,-0.5625,5.9375
1563493177.272649,359.9375,-0.5625,5.9375,-0.09,-1.02,9.75,0.0,0.02,-0.13,0.0,0.0033333333333333335,0.0011111111111111111,-16.375,-14.5625,-37.375,35,-0.0521240234375,0.00494384765625,0.0,0.9986572265625,359.9375,-0.5625,5.9375
1563493177.312273,359.9375,-0.5625,5.9375,-0.09,-1.02,9.75,0.0,0.01,-0.16,0.0,0.0033333333333333335,-0.0011111111111111111,-16.75,-14.5625,-36.1875,35,-0.0521240234375,0.00494384765625,0.0,0.9986572265625,359.9375,-0.5625,5.9375
1563493177.352282,359.9375,-0.5625,5.9375,-0.09,-1.02,9.75,0.0,0.0,-0.18,0.0,0.0044444444444444444,0.0,-16.75,-15.375,-35.375,35,-0.0521240234375,0.00494384765625,0.0,0.9986572265625,359.9375,-0.5625,5.9375
1563493177.390534,359.9375,-0.5625,5.9375,-0.09,-1.02,9.75,0.01,0.01,-0.14,0.0011111111111111111,0.0,0.0,-16.75,-15.0,-37.75,35,-0.0521240234375,0.00494384765625,0.0,0.9986572265625,359.9375,-0.5625,5.9375
1563493177.432636,359.9375,-0.5625,5.9375,-0.09,-1.02,9.75,0.0,0.02,-0.14,0.0,0.0011111111111111111,-0.0033333333333333335,-16.75,-15.0,-37.75,35,-0.0521240234375,0.00494384765625,0.0,0.9986572265625,359.9375,-0.5625,5.9375
1563493177.474544,359.9375,-0.5625,5.9375,-0.09,-1.02,9.75,0.01,0.01,-0.18,-0.0011111111111111111,-0.0022222222222222222,-0.0011111111111111111,-16.75,-15.0,-36.5625,35,-0.0521240234375,0.00494384765625,0.0,0.9986572265625,359.9375,-0.5625,5.9375
1563493177.512857,359.9375,-0.5625,5.9375,-0.09,-1.02,9.75,0.0,0.01,-0.14,0.0011111111111111111,0.0022222222222222222,-0.0011111111111111111,-17.1875,-15.75,-36.5625,35,-0.0521240234375,0.00494384765625,0.0,0.9986572265625,359.9375,-0.5625,5.9375
1563493177.55132,359.9375,-0.5625,5.9375,-0.09,-1.02,9.75,-0.02,0.01,-0.16,0.0022222222222222222,0.0011111111111111111,-0.0022222222222222222,-17.1875,-15.75,-36.5625,35,-0.0521240234375,0.00494384765625,0.0,0.9986572265625,359.9375,-0.5625,5.9375
1563493177.589481,359.9375,-0.5625,5.9375,-0.09,-1.02,9.75,0.0,0.01,-0.17,0.0,-0.0022222222222222222,0.0011111111111111111,-17.1875,-14.5625,-37.0,35,-0.0521240234375,0.00494384765625,0.0,0.9986572265625,359.9375,-0.5625,5.9375
1563493177.633374,359.9375,-0.5625,5.9375,-0.09,-1.02,9.75,0.02,0.02,-0.18,0.0,-0.0022222222222222222,-0.0011111111111111111,-17.1875,-14.5625,-37.0,35,-0.0521240234375,0.00494384765625,0.0,0.9986572265625,359.9375,-0.5625,5.9375
1563493177.674426,359.9375,-0.5625,5.9375,-0.09,-1.02,9.75,0.01,0.01,-0.15,0.0,-0.0022222222222222222,-0.0011111111111111111,-16.75,-14.5625,-37.0,35,-0.0521240234375,0.00494384765625,0.0,0.9986572265625,359.9375,-0.5625,5.9375
1563493177.71368,359.9375,-0.5625,5.9375,-0.09,-1.02,9.75,-0.02,0.01,-0.13,-0.0011111111111111111,0.0011111111111111111,-0.0011111111111111111,-16.375,-15.0,-37.0,35,-0.0521240234375,0.00494384765625,0.0,0.9986572265625,359.9375,-0.5625,5.9375
1563493177.752153,359.9375,-0.5625,5.9375,-0.09,-1.02,9.75,0.0,0.0,-0.18,-0.0011111111111111111,-0.0011111111111111111,0.0022222222222222222,-16.75,-15.0,-37.0,35,-0.0521240234375,0.00494384765625,0.0,0.9986572265625,359.9375,-0.5625,5.9375
1563493177.790329,359.9375,-0.5625,5.9375,-0.09,-1.02,9.75,0.01,0.02,-0.15,-0.0011111111111111111,0.0011111111111111111,0.0011111111111111111,-17.1875,-15.75,-37.0,35,-0.0521240234375,0.00494384765625,0.0,0.9986572265625,359.9375,-0.5625,5.9375
1563493177.834191,359.9375,-0.5625,5.9375,-0.09,-1.02,9.75,0.0,0.02,-0.13,0.0,-0.0011111111111111111,0.0022222222222222222,-17.1875,-15.75,-37.0,35,-0.0521240234375,0.00494384765625,0.0,0.9986572265625,359.9375,-0.5625,5.9375
1563493177.875254,359.9375,-0.5625,5.9375,-0.09,-1.02,9.75,-0.01,0.0,-0.14,0.0,-0.0022222222222222222,-0.0011111111111111111,-16.375,-14.5625,-36.1875,35,-0.0521240234375,0.00494384765625,0.0,0.9986572265625,359.9375,-0.5625,5.9375
1563493177.914535,359.9375,-0.5625,5.9375,-0.09,-1.02,9.75,0.0,0.02,-0.17,0.0,-0.0022222222222222222,0.0011111111111111111,-16.75,-15.375,-36.1875,35,-0.0521240234375,0.00494384765625,0.0,0.9986572265625,359.9375,-0.5625,5.9375
1563493177.953023,359.9375,-0.5625,5.9375,-0.09,-1.02,9.75,0.01,0.02,-0.18,0.0,0.0,0.0,-16.75,-14.5625,-37.0,35,-0.0521240234375,0.00494384765625,0.0,0.9986572265625,359.9375,-0.5625,5.9375
1563493177.991109,359.9375,-0.5625,5.9375,-0.09,-1.02,9.75,0.0,0.02,-0.14,-0.0022222222222222222,-0.0011111111111111111,0.0022222222222222222,-16.375,-15.75,-37.0,35,-0.0521240234375,0.00494384765625,0.0,0.9986572265625,359.9375,-0.5625,5.9375
1563493178.03498,359.9375,-0.5625,5.9375,-0.09,-1.02,9.75,0.0,0.0,-0.14,0.0,0.0011111111111111111,-0.0022222222222222222,-16.375,-15.75,-37.0,35,-0.0521240234375,0.00494384765625,0.0,0.9986572265625,359.9375,-0.5625,5.9375
1563493178.076042,359.9375,-0.5625,5.9375,-0.09,-1.02,9.75,0.01,0.01,-0.18,-0.0011111111111111111,0.0,0.0,-17.5625,-14.25,-37.0,35,-0.0521240234375,0.00494384765625,0.0,0.9986572265625,359.9375,-0.5625,5.9375
1563493178.115345,359.9375,-0.5625,5.9375,-0.09,-1.02,9.75,0.0,0.0,-0.16,-0.0011111111111111111,-0.0011111111111111111,0.0,-17.1875,-14.5625,-37.0,35,-0.0521240234375,0.00494384765625,0.0,0.9986572265625,359.9375,-0.5625,5.9375
1563493178.153828,359.9375,-0.5625,5.9375,-0.09,-1.02,9.75,0.01,0.02,-0.17,0.0,0.0,0.0,-16.75,-15.375,-37.0,35,-0.0521240234375,0.00494384765625,0.0,0.9986572265625,359.9375,-0.5625,5.9375
1563493178.191956,359.9375,-0.5625,5.9375,-0.09,-1.02,9.75,-0.01,0.01,-0.13,0.0,0.0022222222222222222,0.0011111111111111111,-16.75,-14.5625,-37.375,35,-0.0521240234375,0.00494384765625,0.0,0.9986572265625,359.9375,-0.5625,5.9375
1563493178.235864,359.9375,-0.5625,5.9375,-0.09,-1.02,9.75,0.01,0.01,-0.17,0.0,-0.0011111111111111111,-0.0011111111111111111,-16.75,-14.5625,-37.375,35,-0.0521240234375,0.00494384765625,0.0,0.9986572265625,359.9375,-0.5625,5.9375
1563493178.276846,359.9375,-0.5625,5.9375,-0.09,-1.02,9.75,0.02,0.01,-0.15,0.0,0.0011111111111111111,0.0011111111111111111,-16.375,-14.25,-35.75,35,-0.0521240234375,0.00494384765625,0.0,0.9986572265625,359.9375,-0.5625,5.9375
1563493178.316239,359.9375,-0.5625,5.9375,-0.09,-1.02,9.75,0.01,0.0,-0.15,-0.0011111111111111111,-0.0011111111111111111,0.0,-16.375,-15.0,-36.5625,35,-0.0521240234375,0.00494384765625,0.0,0.9986572265625,359.9375,-0.5625,5.9375
1563493178.35471,359.9375,-0.5625,5.9375,-0.09,-1.02,9.75,0.0,0.02,-0.18,0.0011111111111111111,0.0022222222222222222,-0.0011111111111111111,-17.1875,-15.0,-35.375,35,-0.0521240234375,0.00494384765625,0.0,0.9986572265625,359.9375,-0.5625,5.9375
1563493178.394627,359.9375,-0.5625,5.9375,-0.09,-1.02,9.75,0.01,0.0,-0.17,0.0011111111111111111,0.0033333333333333335,0.0,-16.75,-15.0,-37.0,35,-0.0521240234375,0.00494384765625,0.0,0.9986572265625,359.9375,-0.5625,5.9375
1563493178.43679,359.9375,-0.5625,5.9375,-0.09,-1.02,9.75,0.0,0.01,-0.16,0.0,-0.0011111111111111111,-0.0011111111111111111,-16.75,-15.0,-37.0,35,-0.0521240234375,0.00494384765625,0.0,0.9986572265625,359.9375,-0.5625,5.9375
1563493178.478157,359.9375,-0.5625,5.9375,-0.09,-1.02,9.75,0.0,0.0,-0.15,0.0,0.0,0.0,-17.1875,-14.5625,-35.375,35,-0.0521240234375,0.00494384765625,0.0,0.9986572265625,359.9375,-0.5625,5.9375
1563493178.516991,359.9375,-0.5625,5.9375,-0.09,-1.02,9.75,-0.01,0.02,-0.16,0.0,0.0,0.0011111111111111111,-17.1875,-15.0,-37.0,35,-0.0521240234375,0.00494384765625,0.0,0.9986572265625,359.9375,-0.5625,5.9375
1563493178.555446,359.9375,-0.5625,5.9375,-0.09,-1.02,9.75,0.01,0.02,-0.2,0.0,-0.0011111111111111111,0.0,-17.5625,-14.25,-36.5625,35,-0.0521240234375,0.00494384765625,0.0,0.9986572265625,359.9375,-0.5625,5.9375
1563493178.593624,359.9375,-0.5625,5.9375,-0.09,-1.02,9.75,0.0,0.01,-0.14,0.0,0.0011111111111111111,-0.0011111111111111111,-16.75,-14.25,-36.1875,35,-0.0521240234375,0.00494384765625,0.0,0.9986572265625,359.9375,-0.5625,5.9375
1563493178.637542,359.9375,-0.5625,5.9375,-0.09,-1.02,9.75,0.0,0.01,-0.12,0.0,-0.0011111111111111111,-0.0011111111111111111,-16.75,-14.25,-36.1875,35,-0.0521240234375,0.00494384765625,0.0,0.9986572265625,359.9375,-0.5625,5.9375
1563493178.678622,359.9375,-0.5625,5.9375,-0.09,-1.02,9.75,0.0,0.02,-0.11,0.0,0.0,-0.0011111111111111111,-16.0625,-15.375,-37.375,35,-0.0521240234375,0.00494384765625,0.0,0.9986572265625,359.9375,-0.5625,5.9375
1563493178.717807,359.9375,-0.5625,5.9375,-0.09,-1.02,9.75,0.01,0.02,-0.16,0.0011111111111111111,0.0,-0.0011111111111111111,-16.375,-15.375,-36.5625,35,-0.0521240234375,0.00494384765625,0.0,0.9986572265625,359.9375,-0.5625,5.9375
1563493178.758074,359.9375,-0.5625,5.9375,-0.09,-1.02,9.75,0.0,0.01,-0.17,0.0011111111111111111,0.0,0.0,-16.75,-14.25,-36.1875,35,-0.0521240234375,0.00494384765625,0.0,0.9986572265625,359.9375,-0.5625,5.9375
1563493178.796327,359.9375,-0.5625,5.9375,-0.09,-1.02,9.75,0.0,0.01,-0.14,0.0011111111111111111,0.0011111111111111111,-0.0011111111111111111,-16.75,-14.5625,-35.75,35,-0.0521240234375,0.00494384765625,0.0,0.9986572265625,359.9375,-0.5625,5.9375
1563493178.83829,359.9375,-0.5625,5.9375,-0.09,-1.02,9.75,0.0,0.01,-0.12,-0.0011111111111111111,0.0022222222222222222,0.0022222222222222222,-16.75,-14.5625,-35.75,35,-0.0521240234375,0.00494384765625,0.0,0.9986572265625,359.9375,-0.5625,5.9375
1563493178.879382,359.9375,-0.5625,5.9375,-0.09,-1.02,9.75,0.0,0.01,-0.15,0.0,0.0022222222222222222,0.0,-16.75,-15.375,-37.375,35,-0.0521240234375,0.00494384765625,0.0,0.9986572265625,359.9375,-0.5625,5.9375
1563493178.918661,359.9375,-0.5625,5.9375,-0.09,-1.02,9.75,0.0,0.01,-0.15,0.0,-0.0011111111111111111,0.0,-16.0625,-15.0,-36.5625,35,-0.0521240234375,0.00494384765625,0.0,0.9986572265625,359.9375,-0.5625,5.9375
1563493178.957166,359.9375,-0.5625,5.9375,-0.09,-1.02,9.75,0.0,0.01,-0.14,-0.0011111111111111111,-0.0011111111111111111,0.0,-15.6875,-15.375,-35.75,35,-0.0521240234375,0.00494384765625,0.0,0.9986572265625,359.9375,-0.5625,5.9375
1563493178.995351,359.9375,-0.5625,5.9375,-0.09,-1.02,9.75,0.01,0.02,-0.14,0.0,-0.0011111111111111111,-0.0044444444444444444,-17.5625,-15.0,-37.75,35,-0.0521240234375,0.00494384765625,0.0,0.9986572265625,359.9375,-0.5625,5.9375
1563493179.039175,359.9375,-0.5625,5.9375,-0.09,-1.02,9.75,0.0,0.01,-0.15,0.0011111111111111111,0.0011111111111111111,0.0,-17.5625,-15.0,-37.75,35,-0.0521240234375,0.00494384765625,0.0,0.9986572265625,359.9375,-0.5625,5.9375
1563493179.080269,359.9375,-0.5625,5.9375,-0.09,-1.02,9.75,0.0,0.01,-0.15,0.0011111111111111111,0.0022222222222222222,0.0011111111111111111,-16.375,-14.25,-37.0,35,-0.0521240234375,0.00494384765625,0.0,0.9986572265625,359.9375,-0.5625,5.9375
1563493179.119546,359.9375,-0.5625,5.9375,-0.09,-1.02,9.75,0.0,0.01,-0.17,0.0,-0.0011111111111111111,0.0,-16.75,-14.25,-36.1875,35,-0.0521240234375,0.00494384765625,0.0,0.9986572265625,359.9375,-0.5625,5.9375
1563493179.157927,359.9375,-0.5625,5.9375,-0.09,-1.02,9.75,0.01,0.01,-0.15,-0.0011111111111111111,0.0,-0.0022222222222222222,-16.75,-14.25,-36.5625,35,-0.0521240234375,0.00494384765625,0.0,0.9986572265625,359.9375,-0.5625,5.9375
1563493179.19613,359.9375,-0.5625,5.9375,-0.09,-1.02,9.75,0.0,0.02,-0.12,0.0,0.0,0.0022222222222222222,-16.75,-15.0,-37.0,35,-0.0521240234375,0.00494384765625,0.0,0.9986572265625,359.9375,-0.5625,5.9375
1563493179.240027,359.9375,-0.5625,5.9375,-0.09,-1.02,9.75,0.0,0.01,-0.14,-0.0011111111111111111,0.0044444444444444444,-0.0011111111111111111,-16.75,-15.0,-37.0,35,-0.0521240234375,0.00494384765625,0.0,0.9986572265625,359.9375,-0.5625,5.9375
1563493179.281121,359.9375,-0.5625,5.9375,-0.09,-1.02,9.75,-0.01,0.0,-0.13,0.0011111111111111111,-0.0022222222222222222,0.0011111111111111111,-16.75,-14.5625,-36.1875,35,-0.0521240234375,0.00494384765625,0.0,0.9986572265625,359.9375,-0.5625,5.9375
1563493179.320396,359.9375,-0.5625,5.9375,-0.09,-1.02,9.75,0.01,0.02,-0.16,0.0011111111111111111,0.0,0.0011111111111111111,-17.875,-14.5625,-36.5625,35,-0.0521240234375,0.00494384765625,0.0,0.9986572265625,359.9375,-0.5625,5.9375
1563493179.358923,359.9375,-0.5625,5.9375,-0.09,-1.02,9.75,0.03,0.01,-0.16,-0.0011111111111111111,0.0011111111111111111,-0.0022222222222222222,-16.375,-14.25,-37.0,35,-0.0521240234375,0.00494384765625,0.0,0.9986572265625,359.9375,-0.5625,5.9375
1563493179.398805,359.9375,-0.5625,5.9375,-0.09,-1.02,9.75,0.01,0.01,-0.17,0.0011111111111111111,-0.0044444444444444444,0.0011111111111111111,-16.375,-14.25,-37.75,35,-0.0521240234375,0.00494384765625,0.0,0.9986572265625,359.9375,-0.5625,5.9375
1563493179.440852,359.9375,-0.5625,5.9375,-0.09,-1.02,9.75,-0.02,0.01,-0.14,0.0,0.0,0.0,-16.375,-14.25,-37.75,35,-0.0521240234375,0.00494384765625,0.0,0.9986572265625,359.9375,-0.5625,5.9375
1563493179.48745,359.9375,-0.5625,5.9375,-0.09,-1.02,9.75,0.0,0.02,-0.13,-0.0022222222222222222,-0.0022222222222222222,0.0,-16.75,-14.25,-37.0,35,-0.0521240234375,0.00494384765625,0.0,0.9986572265625,359.9375,-0.5625,5.9375
1563493179.530364,359.9375,-0.5625,5.9375,-0.09,-1.02,9.75,0.02,0.02,-0.17,0.0,-0.0022222222222222222,-0.0011111111111111111,-15.25,-15.75,-36.1875,35,-0.0521240234375,0.00494384765625,0.0,0.9986572265625,359.9375,-0.5625,5.9375
1563493179.569753,359.9375,-0.5625,5.9375,-0.09,-1.02,9.75,0.01,0.0,-0.15,0.0,0.0011111111111111111,0.0022222222222222222,-16.75,-15.0,-35.375,35,-0.0521240234375,0.00494384765625,0.0,0.9986572265625,359.9375,-0.5625,5.9375
1563493179.609848,359.9375,-0.5625,5.9375,-0.09,-1.02,9.75,-0.01,0.02,-0.19,0.0,0.0011111111111111111,-0.0022222222222222222,-17.1875,-13.875,-36.1875,35,-0.0521240234375,0.00494384765625,0.0,0.9986572265625,359.9375,-0.5625,5.9375
1563493179.648162,359.9375,-0.5625,5.9375,-0.09,-1.02,9.75,0.0,0.01,-0.14,0.0011111111111111111,0.0,-0.0033333333333333335,-17.1875,-14.5625,-36.1875,35,-0.0521240234375,0.00494384765625,0.0,0.9986572265625,359.9375,-0.5625,5.9375
1563493179.691902,359.9375,-0.5625,5.9375,-0.09,-1.02,9.75,-0.01,0.03,-0.14,0.0011111111111111111,-0.0011111111111111111,-0.0011111111111111111,-17.1875,-14.5625,-36.1875,35,-0.0521240234375,0.00494384765625,0.0,0.9986572265625,359.9375,-0.5625,5.9375
1563493179.733051,359.9375,-0.5625,5.9375,-0.09,-1.02,9.75,0.0,0.01,-0.13,0.0,0.0011111111111111111,0.0011111111111111111,-17.5625,-15.0,-37.0,35,-0.0521240234375,0.00494384765625,0.0,0.9986572265625,359.9375,-0.5625,5.9375
1563493179.772292,359.9375,-0.5625,5.9375,-0.09,-1.02,9.75,-0.01,0.01,-0.13,0.0011111111111111111,0.0,-0.0011111111111111111,-16.0625,-16.0625,-37.0,35,-0.0521240234375,0.00494384765625,0.0,0.9986572265625,359.9375,-0.5625,5.9375
1563493179.810634,359.9375,-0.5625,5.9375,-0.09,-1.02,9.75,0.0,0.03,-0.15,0.0,0.0011111111111111111,0.0011111111111111111,-16.75,-15.0,-35.75,35,-0.0521240234375,0.00494384765625,0.0,0.9986572265625,359.9375,-0.5625,5.9375
1563493179.848998,359.9375,-0.5625,5.9375,-0.09,-1.02,9.75,0.02,0.01,-0.13,0.0,-0.0011111111111111111,0.0011111111111111111,-16.0625,-15.0,-37.375,35,-0.0521240234375,0.00494384765625,0.0,0.9986572265625,359.9375,-0.5625,5.9375
1563493179.892727,359.9375,-0.5625,5.9375,-0.09,-1.02,9.75,0.0,0.01,-0.16,0.0011111111111111111,0.0,0.0,-16.0625,-15.0,-37.375,35,-0.0521240234375,0.00494384765625,0.0,0.9986572265625,359.9375,-0.5625,5.9375
1563493179.933845,359.9375,-0.5625,5.9375,-0.09,-1.02,9.75,0.0,0.02,-0.13,0.0,-0.0011111111111111111,-0.0011111111111111111,-16.75,-15.0,-37.375,35,-0.0521240234375,0.00494384765625,0.0,0.9986572265625,359.9375,-0.5625,5.9375
1563493179.973036,359.9375,-0.5625,5.9375,-0.09,-1.02,9.75,0.0,0.0,-0.15,0.0011111111111111111,0.0,0.0,-16.75,-15.0,-36.1875,35,-0.0521240234375,0.00494384765625,0.0,0.9986572265625,359.9375,-0.5625,5.9375
1563493180.011518,359.9375,-0.5625,5.9375,-0.09,-1.02,9.75,0.01,0.02,-0.16,0.0,0.0,-0.0022222222222222222,-16.375,-14.5625,-36.5625,35,-0.0521240234375,0.00494384765625,0.0,0.9986572265625,359.9375,-0.5625,5.9375
1563493180.049805,359.9375,-0.5625,5.9375,-0.09,-1.02,9.75,0.02,0.03,-0.14,0.0,-0.0011111111111111111,0.0011111111111111111,-16.375,-14.5625,-37.0,35,-0.0521240234375,0.00494384765625,0.0,0.9986572265625,359.9375,-0.5625,5.9375
1563493180.093604,359.9375,-0.5625,5.9375,-0.09,-1.02,9.75,0.0,0.01,-0.17,-0.0011111111111111111,0.0011111111111111111,0.0,-16.375,-14.5625,-37.0,35,-0.0521240234375,0.00494384765625,0.0,0.9986572265625,359.9375,-0.5625,5.9375
1563493180.134749,359.9375,-0.5625,5.9375,-0.09,-1.02,9.75,0.02,0.01,-0.16,0.0011111111111111111,0.0033333333333333335,-0.0011111111111111111,-16.75,-14.5625,-37.0,35,-0.0521240234375,0.00494384765625,0.0,0.9986572265625,359.9375,-0.5625,5.9375
1563493180.173849,359.9375,-0.5625,5.9375,-0.09,-1.02,9.75,0.0,0.01,-0.18,-0.0011111111111111111,-0.0033333333333333335,0.0,-16.375,-15.75,-36.1875,35,-0.0521240234375,0.00494384765625,0.0,0.9986572265625,359.9375,-0.5625,5.9375
1563493180.212244,359.9375,-0.5625,5.9375,-0.09,-1.02,9.75,-0.02,0.01,-0.17,-0.0011111111111111111,0.0011111111111111111,-0.0022222222222222222,-17.1875,-15.0,-37.0,35,-0.0521240234375,0.00494384765625,0.0,0.9986572265625,359.9375,-0.5625,5.9375
1563493180.250783,359.9375,-0.5625,5.9375,-0.09,-1.02,9.75,-0.02,0.02,-0.16,0.0,0.0022222222222222222,-0.0011111111111111111,-17.1875,-14.25,-38.5625,35,-0.0521240234375,0.00494384765625,0.0,0.9986572265625,359.9375,-0.5625,5.9375
1563493180.294477,359.9375,-0.5625,5.9375,-0.09,-1.02,9.75,0.0,0.01,-0.13,0.0,0.0011111111111111111,0.0011111111111111111,-17.1875,-14.25,-38.5625,35,-0.0521240234375,0.00494384765625,0.0,0.9986572265625,359.9375,-0.5625,5.9375
1563493180.335532,359.9375,-0.5625,5.9375,-0.09,-1.02,9.75,-0.01,0.01,-0.13,0.0011111111111111111,-0.0022222222222222222,-0.0011111111111111111,-17.875,-14.5625,-36.5625,35,-0.0521240234375,0.00494384765625,0.0,0.9986572265625,359.9375,-0.5625,5.9375
1563493180.374731,359.9375,-0.5625,5.9375,-0.09,-1.02,9.75,-0.02,0.02,-0.15,-0.0022222222222222222,0.0011111111111111111,-0.0022222222222222222,-17.1875,-13.875,-37.0,35,-0.0521240234375,0.00494384765625,0.0,0.9986572265625,359.9375,-0.5625,5.9375
1563493180.413214,359.9375,-0.5625,5.9375,-0.09,-1.02,9.75,0.0,0.0,-0.2,-0.0011111111111111111,0.0044444444444444444,-0.0011111111111111111,-16.75,-14.25,-37.375,35,-0.0521240234375,0.00494384765625,0.0,0.9986572265625,359.9375,-0.5625,5.9375
1563493180.451486,359.9375,-0.5625,5.9375,-0.09,-1.02,9.75,0.02,0.01,-0.16,0.0022222222222222222,0.0011111111111111111,0.0011111111111111111,-16.75,-14.5625,-36.5625,35,-0.0521240234375,0.00494384765625,0.0,0.9986572265625,359.9375,-0.5625,5.9375
1563493180.495246,359.9375,-0.5625,5.9375,-0.09,-1.02,9.75,0.08,-0.01,-0.15,0.0022222222222222222,-0.0022222222222222222,-0.0022222222222222222,-16.75,-14.5625,-36.5625,35,-0.0521240234375,0.00494384765625,0.0,0.9986572265625,359.9375,-0.5625,5.9375
1563493180.53622,359.9375,-0.5625,5.9375,-0.09,-1.02,9.75,0.01,-0.1,-0.11,0.0033333333333333335,0.0022222222222222222,-0.0011111111111111111,-17.1875,-15.0,-35.75,35,-0.0521240234375,0.00494384765625,0.0,0.9986572265625,359.9375,-0.5625,5.9375
1563493180.57552,359.9375,-0.5625,5.9375,-0.09,-1.01,9.75,-0.12,0.19,-0.17,0.011111111111111112,0.0011111111111111111,0.0044444444444444444,-16.375,-15.0,-36.5625,35,-0.0521240234375,0.00494384765625,0.0,0.9986572265625,359.9375,-0.5625,5.9375
1563493180.614083,359.9375,-0.5625,5.9375,-0.09,-1.01,9.75,-0.05,0.1,-0.14,0.0033333333333333335,0.0011111111111111111,0.0022222222222222222,-17.1875,-14.25,-35.75,35,-0.05206298828125,0.00494384765625,0.0,0.9986572265625,359.9375,-0.5625,5.9375
1563493180.654265,359.9375,-0.5625,5.9375,-0.09,-1.01,9.75,0.07,-0.06,-0.19,-0.0033333333333333335,-0.0011111111111111111,0.0,-16.375,-14.5625,-38.25,35,-0.05206298828125,0.00494384765625,0.0,0.9986572265625,359.9375,-0.5625,5.9375
1563493180.69788,359.9375,-0.5625,5.9375,-0.09,-1.01,9.75,0.0,0.02,-0.16,0.0022222222222222222,-0.0022222222222222222,0.0011111111111111111,-17.1875,-15.375,-36.1875,35,-0.05206298828125,0.00494384765625,0.0,0.9986572265625,359.9375,-0.5625,5.9375
1563493180.742722,359.9375,-0.5625,5.9375,-0.09,-1.01,9.75,-0.05,0.08,-0.13,0.0,-0.0011111111111111111,-0.0022222222222222222,-17.1875,-15.375,-36.1875,35,-0.05206298828125,0.00494384765625,0.0,0.9986572265625,359.9375,-0.5625,5.9375
1563493180.785458,359.9375,-0.5625,5.9375,-0.09,-1.01,9.75,0.03,-0.01,-0.13,-0.0022222222222222222,-0.0022222222222222222,0.0011111111111111111,-15.6875,-14.5625,-37.375,35,-0.05206298828125,0.00494384765625,0.0,0.9986572265625,359.9375,-0.5625,5.9375
1563493180.824845,359.9375,-0.5625,5.9375,-0.09,-1.01,9.75,0.0,0.03,-0.13,0.0022222222222222222,0.0022222222222222222,0.0011111111111111111,-17.1875,-15.75,-36.5625,35,-0.05206298828125,0.00494384765625,0.0,0.9986572265625,359.9375,-0.5625,5.9375
1563493180.863221,359.9375,-0.5625,5.9375,-0.09,-1.01,9.75,-0.01,0.0,-0.15,0.0022222222222222222,0.0011111111111111111,-0.0022222222222222222,-16.75,-15.0,-37.375,35,-0.05206298828125,0.00494384765625,0.0,0.9986572265625,359.9375,-0.5625,5.9375
1563493180.903241,359.9375,-0.5625,5.9375,-0.09,-1.01,9.75,-0.1,0.02,-0.12,0.0,0.0,0.0,-16.0625,-15.0,-36.1875,35,-0.05206298828125,0.00494384765625,0.0,0.9986572265625,359.9375,-0.5625,5.9375
1563493180.947114,359.9375,-0.5625,5.9375,-0.09,-1.01,9.75,-0.03,0.04,-0.18,0.0011111111111111111,0.0044444444444444444,0.0044444444444444444,-16.0625,-15.0,-36.1875,35,-0.05206298828125,0.00494384765625,0.0,0.9986572265625,359.9375,-0.5625,5.9375
1563493180.989049,359.9375,-0.5625,5.9375,-0.09,-1.01,9.75,0.0,0.1,-0.2,0.0011111111111111111,-0.0033333333333333335,0.0022222222222222222,-17.1875,-15.75,-37.0,35,-0.05206298828125,0.00494384765625,0.0,0.9986572265625,359.9375,-0.5625,5.9375
1563493181.027369,359.9375,-0.5625,5.9375,-0.09,-1.01,9.75,-0.06,0.11,-0.09,0.0011111111111111111,0.0011111111111111111,0.0,-16.75,-15.0,-35.75,35,-0.05206298828125,0.00494384765625,0.0,0.9986572265625,359.9375,-0.5625,5.9375
1563493181.065832,359.9375,-0.5625,5.9375,-0.09,-1.01,9.75,-0.07,0.03,-0.19,-0.0022222222222222222,0.0011111111111111111,-0.0011111111111111111,-16.75,-15.0,-36.5625,35,-0.05206298828125,0.00494384765625,0.0,0.9986572265625,359.9375,-0.5625,5.9375
1563493181.104005,359.9375,-0.5625,5.9375,-0.09,-1.01,9.75,0.0,0.01,-0.16,0.0,-0.0022222222222222222,0.0,-16.75,-15.375,-36.1875,35,-0.05206298828125,0.00494384765625,0.0,0.9986572265625,359.9375,-0.5625,5.9375
1563493181.147941,359.9375,-0.5625,5.9375,-0.09,-1.01,9.75,0.03,0.01,-0.15,0.0011111111111111111,-0.0022222222222222222,0.0011111111111111111,-16.75,-15.375,-36.1875,35,-0.05206298828125,0.00494384765625,0.0,0.9986572265625,359.9375,-0.5625,5.9375
1563493181.188992,359.9375,-0.5625,5.9375,-0.09,-1.01,9.75,-0.04,0.01,-0.16,0.0,-0.0022222222222222222,-0.0022222222222222222,-16.375,-15.0,-35.75,35,-0.05206298828125,0.00494384765625,0.0,0.9986572265625,359.9375,-0.5625,5.9375
1563493181.228276,359.9375,-0.5625,5.9375,-0.09,-1.01,9.75,-0.06,0.03,-0.16,0.0,0.0011111111111111111,0.0011111111111111111,-16.75,-14.5625,-36.5625,35,-0.05206298828125,0.00494384765625,0.0,0.9986572265625,359.9375,-0.5625,5.9375
1563493181.266775,359.9375,-0.5625,5.9375,-0.09,-1.01,9.75,-0.02,0.08,-0.18,0.0011111111111111111,-0.0033333333333333335,0.0022222222222222222,-16.75,-15.0,-36.5625,35,-0.05206298828125,0.00494384765625,0.0,0.9986572265625,359.9375,-0.5625,5.9375
1563493181.306739,359.9375,-0.5625,5.9375,-0.09,-1.01,9.75,0.01,0.03,-0.18,-0.0033333333333333335,0.0,-0.0011111111111111111,-16.75,-15.0,-37.375,35,-0.05206298828125,0.00494384765625,0.0,0.9986572265625,359.9375,-0.5625,5.9375
1563493181.348893,359.9375,-0.5625,5.9375,-0.09,-1.01,9.75,0.0,-0.01,-0.17,0.0,-0.0033333333333333335,0.0033333333333333335,-16.75,-15.0,-37.375,35,-0.05206298828125,0.00494384765625,0.0,0.9986572265625,359.9375,-0.5625,5.9375
1563493181.395462,359.9375,-0.5625,5.9375,-0.09,-1.01,9.75,0.03,0.06,-0.03,-0.0011111111111111111,-0.0022222222222222222,0.0011111111111111111,-16.375,-15.0,-37.0,35,-0.05206298828125,0.00494384765625,0.0,0.9986572265625,359.9375,-0.5625,5.9375
1563493181.438129,359.9375,-0.5625,5.9375,-0.09,-1.01,9.75,-0.33,0.13,-0.29,0.0011111111111111111,0.0011111111111111111,0.0022222222222222222,-17.5625,-14.5625,-36.1875,35,-0.05206298828125,0.00494384765625,0.0,0.9986572265625,359.9375,-0.5625,5.9375
1563493181.477558,359.9375,-0.5625,5.9375,-0.09,-1.01,9.75,-0.1,0.09,-0.12,0.0033333333333333335,0.0033333333333333335,-0.0011111111111111111,-16.75,-15.375,-35.375,35,-0.05206298828125,0.00494384765625,0.0,0.9986572265625,359.9375,-0.5625,5.9375
1563493181.515907,359.9375,-0.5625,5.9375,-0.09,-1.01,9.75,0.0,0.07,-0.17,0.0022222222222222222,0.0011111111111111111,-0.0022222222222222222,-16.75,-14.5625,-36.5625,35,-0.05206298828125,0.00494384765625,0.0,0.9986572265625,359.9375,-0.5625,5.9375
1563493181.556081,359.9375,-0.5625,5.9375,-0.09,-1.01,9.75,-0.01,-0.01,-0.16,0.0011111111111111111,-0.0011111111111111111,0.0,-17.1875,-15.375,-37.375,35,-0.05206298828125,0.00494384765625,0.0,0.9986572265625,359.9375,-0.5625,5.9375
