"time in sec since January 1, 1970, 00:00:00 (UTC)",heading (degrees),roll (degrees),pitch (degrees),Gx (m/s2),Gy (m/s2),Gz (m/s2),ax (m/s2),ay (m/s2),az (m/s2),gyroscope x (deg/sec),gyroscope y (deg/sec),gyroscope z (deg/sec),magnetometer x (micro-Teslas),magnetometer y (micro-Teslas),magnetometer z (micro-Teslas),temperature celcius,quaternion x,quaternion y,quaternion z,quaternion w,heading (deg),roll (deg),pitch (deg)
1563492683.687249,360.0,-0.4375,5.9375,-0.07,-1.01,9.75,-0.01,0.0,-0.18,-0.0022222222222222222,0.0033333333333333335,0.0,-16.75,-14.5625,-38.5625,35,-0.05181884765625,0.00390625,0.0,0.9986572265625,360.0,-0.4375,5.9375
1563492683.726766,359.9375,-0.4375,5.9375,-0.07,-1.01,9.75,-0.05,0.0,-0.16,-0.0022222222222222222,0.0033333333333333335,0.0022222222222222222,-16.75,-14.5625,-38.5625,35,-0.05181884765625,0.00390625,0.0,0.9986572265625,359.9375,-0.4375,5.9375
1563492683.76669,359.9375,-0.4375,5.9375,-0.07,-1.01,9.75,-0.02,0.01,-0.14,-0.0033333333333333335,0.0011111111111111111,-0.0011111111111111111,-16.375,-14.5625,-35.75,35,-0.05181884765625,0.00390625,0.0,0.9986572265625,359.9375,-0.4375,5.9375
1563492683.805412,359.9375,-0.4375,5.9375,-0.07,-1.01,9.75,0.0,0.0,-0.17,-0.0022222222222222222,0.0044444444444444444,-0.0011111111111111111,-16.375,-15.375,-36.875,35,-0.05181884765625,0.00390625,0.0,0.9986572265625,359.9375,-0.4375,5.9375
1563492683.84417,359.9375,-0.4375,5.9375,-0.07,-1.01,9.75,0.0,0.01,-0.15,0.0,0.0011111111111111111,0.0,-16.75,-14.5625,-36.0625,35,-0.05181884765625,0.00390625,0.0,0.9986572265625,359.9375,-0.4375,5.9375
1563492683.878935,359.9375,-0.4375,5.9375,-0.07,-1.01,9.75,-0.03,0.02,-0.17,-0.0022222222222222222,0.0011111111111111111,0.0022222222222222222,-16.75,-15.0,-38.5625,35,-0.05181884765625,0.00390625,0.0,0.9986572265625,359.9375,-0.4375,5.9375
1563492683.918935,359.9375,-0.4375,5.9375,-0.07,-1.01,9.75,-0.01,0.0,-0.18,-0.0011111111111111111,0.0044444444444444444,0.0,-16.75,-15.0,-38.5625,35,-0.05181884765625,0.00390625,0.0,0.9986572265625,359.9375,-0.4375,5.9375
1563492683.95782,359.9375,-0.4375,5.9375,-0.07,-1.01,9.75,0.0,0.01,-0.16,-0.0033333333333333335,0.005555555555555556,0.0,-16.375,-15.0,-36.875,35,-0.05181884765625,0.00390625,0.0,0.9986572265625,359.9375,-0.4375,5.9375
1563492683.996269,359.9375,-0.4375,5.9375,-0.07,-1.01,9.75,-0.01,0.02,-0.2,-0.0022222222222222222,0.0033333333333333335,0.0,-16.0625,-14.5625,-36.875,35,-0.05181884765625,0.00390625,0.0,0.9986572265625,359.9375,-0.4375,5.9375
1563492684.034717,359.9375,-0.4375,5.9375,-0.07,-1.01,9.75,0.0,0.0,-0.17,-0.0011111111111111111,0.0033333333333333335,0.0,-16.0625,-15.0,-37.75,35,-0.05181884765625,0.00390625,0.0,0.9986572265625,359.9375,-0.4375,5.9375
1563492684.076491,359.9375,-0.4375,5.9375,-0.07,-1.01,9.75,-0.03,0.0,-0.15,-0.0022222222222222222,0.0044444444444444444,0.0,-16.0625,-15.0,-37.75,35,-0.05181884765625,0.00390625,0.0,0.9986572265625,359.9375,-0.4375,5.9375
1563492684.117695,359.9375,-0.4375,5.9375,-0.07,-1.01,9.75,0.0,0.0,-0.16,-0.0022222222222222222,0.0022222222222222222,0.0,-16.375,-15.0,-36.875,35,-0.05181884765625,0.00396728515625,0.0,0.9986572265625,359.9375,-0.4375,5.9375
1563492684.156882,359.9375,-0.4375,5.9375,-0.07,-1.01,9.75,0.0,0.02,-0.15,-0.0033333333333333335,0.0011111111111111111,0.0011111111111111111,-17.1875,-15.0,-36.5625,35,-0.05181884765625,0.00396728515625,0.0,0.9986572265625,359.9375,-0.4375,5.9375
1563492684.195547,359.9375,-0.4375,5.9375,-0.07,-1.01,9.75,0.0,0.01,-0.16,-0.0033333333333333335,0.0011111111111111111,0.0,-16.75,-14.25,-36.0625,35,-0.05181884765625,0.00396728515625,0.0,0.9986572265625,359.9375,-0.4375,5.9375
1563492684.235671,359.9375,-0.4375,5.9375,-0.07,-1.01,9.75,-0.04,0.0,-0.15,-0.0022222222222222222,0.0044444444444444444,0.0,-16.375,-14.25,-37.375,35,-0.05181884765625,0.00396728515625,0.0,0.9986572265625,359.9375,-0.4375,5.9375
1563492684.275944,359.9375,-0.4375,5.9375,-0.07,-1.01,9.75,-0.01,0.02,-0.14,-0.0011111111111111111,0.0,0.0,-16.375,-14.25,-37.375,35,-0.05181884765625,0.00396728515625,0.0,0.9986572265625,359.9375,-0.4375,5.9375
1563492684.311483,359.9375,-0.4375,5.9375,-0.07,-1.01,9.75,-0.01,0.0,-0.16,0.0011111111111111111,0.0011111111111111111,0.0011111111111111111,-16.375,-14.25,-36.875,35,-0.05181884765625,0.00396728515625,0.0,0.9986572265625,359.9375,-0.4375,5.9375
1563492684.349454,359.9375,-0.4375,5.9375,-0.07,-1.01,9.75,-0.03,0.01,-0.17,-0.0011111111111111111,0.0022222222222222222,0.0011111111111111111,-17.5625,-14.5625,-36.875,35,-0.05181884765625,0.00396728515625,0.0,0.9986572265625,359.9375,-0.4375,5.9375
1563492684.38792,359.9375,-0.4375,5.9375,-0.07,-1.01,9.75,0.0,0.0,-0.16,-0.0022222222222222222,0.0011111111111111111,0.0,-16.75,-14.5625,-36.875,35,-0.05181884765625,0.00396728515625,0.0,0.9986572265625,359.9375,-0.4375,5.9375
1563492684.430179,359.9375,-0.4375,5.9375,-0.07,-1.01,9.75,-0.02,0.0,-0.16,-0.0011111111111111111,0.0011111111111111111,-0.0011111111111111111,-16.75,-14.5625,-36.875,35,-0.05181884765625,0.00396728515625,0.0,0.9986572265625,359.9375,-0.4375,5.9375
1563492684.476753,359.9375,-0.4375,5.9375,-0.07,-1.01,9.75,-0.01,0.01,-0.15,-0.0011111111111111111,0.0,-0.0022222222222222222,-16.75,-14.5625,-37.375,35,-0.05181884765625,0.00396728515625,0.0,0.9986572265625,359.9375,-0.4375,5.9375
1563492684.519559,359.9375,-0.4375,5.9375,-0.07,-1.01,9.75,-0.01,0.01,-0.14,0.0,0.0,0.0022222222222222222,-16.375,-13.875,-37.375,35,-0.05181884765625,0.00396728515625,0.0,0.9986572265625,359.9375,-0.4375,5.9375
1563492684.558958,359.9375,-0.4375,5.9375,-0.07,-1.01,9.75,-0.02,0.01,-0.14,0.0022222222222222222,0.0011111111111111111,-0.0011111111111111111,-16.375,-15.0,-35.75,35,-0.05181884765625,0.00396728515625,0.0,0.9986572265625,359.9375,-0.4375,5.9375
1563492684.599106,359.9375,-0.4375,5.9375,-0.07,-1.01,9.75,0.0,0.01,-0.18,-0.0011111111111111111,0.0,0.0011111111111111111,-17.1875,-14.25,-36.0625,35,-0.05181884765625,0.00396728515625,0.0,0.9986572265625,359.9375,-0.4375,5.9375
1563492684.638987,359.9375,-0.4375,5.9375,-0.07,-1.01,9.75,-0.02,0.01,-0.13,0.0011111111111111111,0.0011111111111111111,0.0022222222222222222,-16.75,-15.0,-37.375,35,-0.05181884765625,0.00396728515625,0.0,0.9986572265625,359.9375,-0.4375,5.9375
1563492684.678997,359.9375,-0.4375,5.9375,-0.07,-1.01,9.75,-0.02,0.0,-0.15,0.0011111111111111111,0.0011111111111111111,-0.0011111111111111111,-16.75,-15.0,-37.375,35,-0.05181884765625,0.00396728515625,0.0,0.9986572265625,359.9375,-0.4375,5.9375
1563492684.720434,359.9375,-0.4375,5.9375,-0.07,-1.01,9.75,-0.02,0.0,-0.15,0.0,0.0033333333333333335,0.0033333333333333335,-17.1875,-13.5,-36.5625,35,-0.05181884765625,0.00396728515625,0.0,0.9986572265625,359.9375,-0.4375,5.9375
1563492684.759298,359.9375,-0.4375,5.9375,-0.07,-1.01,9.75,-0.02,0.0,-0.15,-0.0011111111111111111,-0.0011111111111111111,0.0011111111111111111,-16.75,-14.25,-36.5625,35,-0.05181884765625,0.00396728515625,0.0,0.9986572265625,359.9375,-0.4375,5.9375
1563492684.79783,359.9375,-0.4375,5.9375,-0.07,-1.01,9.75,0.0,0.0,-0.16,-0.0011111111111111111,-0.0011111111111111111,0.0,-16.375,-15.0,-36.5625,35,-0.05181884765625,0.00396728515625,0.0,0.9986572265625,359.9375,-0.4375,5.9375
1563492684.837797,359.9375,-0.4375,5.9375,-0.07,-1.01,9.75,0.0,0.01,-0.12,-0.0022222222222222222,0.0,-0.0011111111111111111,-16.375,-14.25,-37.75,35,-0.05181884765625,0.00396728515625,0.0,0.9986572265625,359.9375,-0.4375,5.9375
1563492684.879744,359.9375,-0.4375,5.9375,-0.07,-1.01,9.75,-0.01,0.02,-0.14,0.0,0.0,0.0011111111111111111,-16.375,-14.25,-37.75,35,-0.05181884765625,0.00396728515625,0.0,0.9986572265625,359.9375,-0.4375,5.9375
1563492684.920725,359.9375,-0.4375,5.9375,-0.07,-1.01,9.75,0.0,0.0,-0.17,-0.0011111111111111111,0.0,0.0011111111111111111,-17.1875,-15.0,-36.0625,35,-0.05181884765625,0.00396728515625,0.0,0.9986572265625,359.9375,-0.4375,5.9375
1563492684.960203,359.9375,-0.4375,5.9375,-0.07,-1.01,9.75,-0.02,0.01,-0.15,0.0,0.0,-0.0011111111111111111,-16.75,-15.0,-36.875,35,-0.05181884765625,0.00396728515625,0.0,0.9986572265625,359.9375,-0.4375,5.9375
1563492684.998583,359.9375,-0.4375,5.9375,-0.07,-1.01,9.75,-0.02,0.0,-0.2,-0.0022222222222222222,-0.0022222222222222222,0.0011111111111111111,-16.75,-15.375,-37.375,35,-0.05181884765625,0.00396728515625,0.0,0.9986572265625,359.9375,-0.4375,5.9375
1563492685.038643,359.9375,-0.4375,5.9375,-0.07,-1.01,9.75,-0.03,0.0,-0.15,0.0,0.0,-0.0011111111111111111,-17.5625,-14.5625,-37.375,35,-0.05181884765625,0.00396728515625,0.0,0.9986572265625,359.9375,-0.4375,5.9375
1563492685.080484,359.9375,-0.4375,5.9375,-0.07,-1.01,9.75,-0.02,0.01,-0.16,0.0011111111111111111,-0.0022222222222222222,0.0,-17.5625,-14.5625,-37.375,35,-0.05181884765625,0.00396728515625,0.0,0.9986572265625,359.9375,-0.4375,5.9375
1563492685.121502,359.9375,-0.4375,5.9375,-0.07,-1.01,9.75,0.0,0.0,-0.14,0.0022222222222222222,0.0,-0.0022222222222222222,-16.375,-13.5,-35.75,35,-0.05181884765625,0.00396728515625,0.0,0.9986572265625,359.9375,-0.4375,5.9375
1563492685.160944,359.9375,-0.4375,5.9375,-0.07,-1.01,9.75,0.0,0.0,-0.17,-0.0011111111111111111,-0.0022222222222222222,-0.0011111111111111111,-16.375,-15.0,-37.375,35,-0.05181884765625,0.00396728515625,0.0,0.9986572265625,359.9375,-0.4375,5.9375
1563492685.199467,359.9375,-0.4375,5.9375,-0.07,-1.01,9.75,-0.01,0.01,-0.16,0.0,0.0011111111111111111,0.0,-16.0625,-15.0,-37.375,35,-0.05181884765625,0.00396728515625,0.0,0.9986572265625,359.9375,-0.4375,5.9375
1563492685.239373,359.9375,-0.4375,5.9375,-0.07,-1.01,9.75,-0.02,0.01,-0.14,0.0,-0.0022222222222222222,-0.0011111111111111111,-17.875,-13.875,-38.1875,35,-0.05181884765625,0.00396728515625,0.0,0.9986572265625,359.9375,-0.4375,5.9375
1563492685.281508,359.9375,-0.4375,5.9375,-0.07,-1.01,9.75,-0.03,0.0,-0.15,0.0011111111111111111,0.0033333333333333335,0.0011111111111111111,-17.875,-13.875,-38.1875,35,-0.05181884765625,0.00396728515625,0.0,0.9986572265625,359.9375,-0.4375,5.9375
1563492685.322283,359.9375,-0.4375,5.9375,-0.07,-1.01,9.75,-0.03,0.01,-0.18,0.0011111111111111111,0.0,-0.0011111111111111111,-17.5625,-14.5625,-36.0625,35,-0.05181884765625,0.00396728515625,0.0,0.9986572265625,359.9375,-0.4375,5.9375
1563492685.361843,359.9375,-0.4375,5.9375,-0.07,-1.01,9.75,0.01,0.0,-0.13,0.0011111111111111111,0.0011111111111111111,0.0,-16.0625,-14.5625,-36.5625,35,-0.05181884765625,0.00396728515625,0.0,0.9986572265625,359.9375,-0.4375,5.9375
1563492685.400221,359.9375,-0.4375,5.9375,-0.07,-1.01,9.75,-0.04,0.0,-0.18,0.0022222222222222222,0.0022222222222222222,0.0011111111111111111,-16.75,-14.25,-36.875,35,-0.05181884765625,0.00396728515625,0.0,0.9986572265625,359.9375,-0.4375,5.9375
1563492685.440242,359.9375,-0.4375,5.9375,-0.07,-1.01,9.75,0.0,0.0,-0.14,0.0,0.0011111111111111111,0.0,-16.75,-14.5625,-36.875,35,-0.05181884765625,0.00396728515625,0.0,0.9986572265625,359.9375,-0.4375,5.9375
1563492685.482339,359.9375,-0.4375,5.9375,-0.07,-1.01,9.75,0.02,0.0,-0.17,-0.0011111111111111111,0.0,-0.0011111111111111111,-16.75,-14.5625,-36.875,35,-0.05181884765625,0.00396728515625,0.0,0.9986572265625,359.9375,-0.4375,5.9375
1563492685.523161,359.9375,-0.4375,5.9375,-0.07,-1.01,9.75,0.0,0.02,-0.18,0.0011111111111111111,0.0033333333333333335,0.0011111111111111111,-16.75,-14.25,-37.0,35,-0.05181884765625,0.00396728515625,0.0,0.9986572265625,359.9375,-0.4375,5.9375
1563492685.562572,359.9375,-0.4375,5.9375,-0.07,-1.01,9.75,-0.07,0.0,-0.16,0.0,0.0011111111111111111,-0.0022222222222222222,-16.75,-14.5625,-36.1875,35,-0.05181884765625,0.00396728515625,0.0,0.9986572265625,359.9375,-0.4375,5.9375
1563492685.601013,359.9375,-0.4375,5.9375,-0.07,-1.01,9.75,-0.03,-0.01,-0.11,-0.0011111111111111111,0.0,-0.0011111111111111111,-16.375,-15.375,-37.375,35,-0.05181884765625,0.00396728515625,0.0,0.9986572265625,359.9375,-0.4375,5.9375
1563492685.640964,359.9375,-0.4375,5.9375,-0.07,-1.01,9.75,0.0,0.0,-0.16,0.0011111111111111111,-0.0011111111111111111,0.0022222222222222222,-16.0625,-13.5,-36.1875,35,-0.05181884765625,0.00396728515625,0.0,0.9986572265625,359.9375,-0.4375,5.9375
1563492685.683058,359.9375,-0.4375,5.9375,-0.07,-1.01,9.75,0.0,0.0,-0.14,0.0,0.0011111111111111111,-0.0011111111111111111,-16.0625,-13.5,-36.1875,35,-0.05181884765625,0.00396728515625,0.0,0.9986572265625,359.9375,-0.4375,5.9375
1563492685.724534,359.9375,-0.4375,5.9375,-0.07,-1.01,9.75,-0.01,0.01,-0.16,0.0022222222222222222,0.0011111111111111111,-0.0011111111111111111,-16.75,-14.25,-36.0625,35,-0.05181884765625,0.00396728515625,0.0,0.9986572265625,359.9375,-0.4375,5.9375
1563492685.763417,359.9375,-0.4375,5.9375,-0.07,-1.01,9.75,-0.02,0.0,-0.13,-0.0022222222222222222,-0.0022222222222222222,-0.0011111111111111111,-16.75,-14.25,-36.5625,35,-0.05181884765625,0.00396728515625,0.0,0.9986572265625,359.9375,-0.4375,5.9375
1563492685.801841,359.9375,-0.4375,5.9375,-0.07,-1.01,9.75,0.0,0.0,-0.16,0.0,0.0,0.0,-17.1875,-14.5625,-36.5625,35,-0.05181884765625,0.00396728515625,0.0,0.9986572265625,359.9375,-0.4375,5.9375
1563492685.841849,359.9375,-0.4375,5.9375,-0.07,-1.01,9.75,0.0,0.0,-0.13,0.0,0.0,0.0011111111111111111,-16.75,-15.0,-36.875,35,-0.05181884765625,0.00396728515625,0.0,0.9986572265625,359.9375,-0.4375,5.9375
1563492685.883927,359.9375,-0.4375,5.9375,-0.07,-1.01,9.75,-0.04,0.01,-0.16,0.0011111111111111111,-0.0011111111111111111,0.0,-16.75,-15.0,-36.875,35,-0.05181884765625,0.00396728515625,0.0,0.9986572265625,359.9375,-0.4375,5.9375
1563492685.924673,359.9375,-0.4375,5.9375,-0.07,-1.01,9.75,-0.02,0.01,-0.17,0.0011111111111111111,0.0011111111111111111,0.0,-16.375,-14.25,-36.875,35,-0.05181884765625,0.00396728515625,0.0,0.9986572265625,359.9375,-0.4375,5.9375
1563492685.964263,359.9375,-0.4375,5.9375,-0.07,-1.01,9.75,0.0,0.01,-0.15,0.0,0.0011111111111111111,-0.0011111111111111111,-17.1875,-13.5,-36.1875,35,-0.05181884765625,0.00396728515625,0.0,0.9986572265625,359.9375,-0.4375,5.9375
1563492686.002664,359.9375,-0.4375,5.9375,-0.07,-1.01,9.75,-0.02,0.0,-0.16,-0.0011111111111111111,-0.0022222222222222222,-0.0011111111111111111,-17.1875,-15.0,-36.5625,35,-0.05181884765625,0.00396728515625,0.0,0.9986572265625,359.9375,-0.4375,5.9375
1563492686.04268,359.9375,-0.4375,5.9375,-0.07,-1.01,9.75,-0.03,0.0,-0.12,-0.0011111111111111111,-0.0011111111111111111,0.0011111111111111111,-17.1875,-14.25,-37.0,35,-0.05181884765625,0.00396728515625,0.0,0.9986572265625,359.9375,-0.4375,5.9375
1563492686.082892,359.9375,-0.4375,5.9375,-0.07,-1.01,9.75,0.0,0.0,-0.14,0.0,0.0033333333333333335,0.0,-17.1875,-14.25,-37.0,35,-0.05181884765625,0.00396728515625,0.0,0.9986572265625,359.9375,-0.4375,5.9375
1563492686.118904,359.9375,-0.4375,5.9375,-0.07,-1.01,9.75,0.0,0.0,-0.15,0.0011111111111111111,-0.0011111111111111111,0.0022222222222222222,-16.75,-14.25,-36.875,35,-0.05181884765625,0.00396728515625,0.0,0.9986572265625,359.9375,-0.4375,5.9375
1563492686.156806,359.9375,-0.4375,5.9375,-0.07,-1.01,9.75,-0.01,0.0,-0.18,0.0,-0.0033333333333333335,0.0011111111111111111,-17.1875,-14.5625,-36.5625,35,-0.05181884765625,0.00396728515625,0.0,0.9986572265625,359.9375,-0.4375,5.9375
1563492686.195129,359.9375,-0.4375,5.9375,-0.07,-1.01,9.75,0.0,0.0,-0.15,-0.0011111111111111111,0.0,0.0,-16.75,-14.5625,-37.375,35,-0.05181884765625,0.00396728515625,0.0,0.9986572265625,359.9375,-0.4375,5.9375
1563492686.237094,359.9375,-0.4375,5.9375,-0.07,-1.01,9.75,-0.02,0.03,-0.15,0.0,0.0,0.0011111111111111111,-16.75,-14.5625,-37.375,35,-0.05181884765625,0.00396728515625,0.0,0.9986572265625,359.9375,-0.4375,5.9375
1563492686.27795,359.9375,-0.4375,5.9375,-0.07,-1.01,9.75,-0.01,0.0,-0.14,-0.0011111111111111111,0.0,0.0011111111111111111,-16.375,-14.5625,-37.375,35,-0.05181884765625,0.00396728515625,0.0,0.9986572265625,359.9375,-0.4375,5.9375
1563492686.317349,359.9375,-0.4375,5.9375,-0.07,-1.01,9.75,0.0,0.0,-0.17,0.0022222222222222222,-0.0011111111111111111,0.0,-17.1875,-14.5625,-37.0,35,-0.05181884765625,0.00396728515625,0.0,0.9986572265625,359.9375,-0.4375,5.9375
1563492686.35575,359.9375,-0.4375,5.9375,-0.07,-1.01,9.75,0.0,0.02,-0.17,0.0022222222222222222,0.0011111111111111111,-0.0022222222222222222,-16.75,-14.5625,-37.0,35,-0.05181884765625,0.00396728515625,0.0,0.9986572265625,359.9375,-0.4375,5.9375
1563492686.39423,359.9375,-0.4375,5.9375,-0.07,-1.01,9.75,-0.03,0.01,-0.13,0.0,0.0,0.0011111111111111111,-16.0625,-14.25,-37.75,35,-0.05181884765625,0.00396728515625,0.0,0.9986572265625,359.9375,-0.4375,5.9375
1563492686.436012,359.9375,-0.4375,5.9375,-0.07,-1.01,9.75,-0.03,0.01,-0.13,-0.0011111111111111111,0.0,0.0,-16.0625,-14.25,-37.75,35,-0.05181884765625,0.00396728515625,0.0,0.9986572265625,359.9375,-0.4375,5.9375
1563492686.477029,359.9375,-0.4375,5.9375,-0.07,-1.01,9.75,-0.02,0.02,-0.16,0.0,-0.0022222222222222222,0.0011111111111111111,-17.1875,-15.0,-36.5625,35,-0.05181884765625,0.00396728515625,0.0,0.9986572265625,359.9375,-0.4375,5.9375
1563492686.516399,359.9375,-0.4375,5.9375,-0.07,-1.01,9.75,0.0,0.0,-0.15,0.0,0.0,-0.0011111111111111111,-16.75,-16.0625,-37.375,35,-0.05181884765625,0.00396728515625,0.0,0.9986572265625,359.9375,-0.4375,5.9375
1563492686.554884,359.9375,-0.4375,5.9375,-0.07,-1.01,9.75,0.0,0.0,-0.13,0.0011111111111111111,0.0011111111111111111,0.0022222222222222222,-16.75,-14.25,-37.0,35,-0.05181884765625,0.00396728515625,0.0,0.9986572265625,359.9375,-0.4375,5.9375
1563492686.595017,359.9375,-0.4375,5.9375,-0.07,-1.01,9.75,-0.04,0.0,-0.14,-0.0011111111111111111,-0.0011111111111111111,0.0022222222222222222,-16.0625,-14.5625,-36.5625,35,-0.05181884765625,0.00396728515625,0.0,0.9986572265625,359.9375,-0.4375,5.9375
1563492686.636815,359.9375,-0.4375,5.9375,-0.07,-1.01,9.75,-0.01,0.0,-0.17,-0.0011111111111111111,0.0,0.0011111111111111111,-16.0625,-14.5625,-36.5625,35,-0.05181884765625,0.00396728515625,0.0,0.9986572265625,359.9375,-0.4375,5.9375
1563492686.677817,359.9375,-0.4375,5.9375,-0.07,-1.01,9.75,-0.01,0.01,-0.15,0.0011111111111111111,0.0,0.0,-17.1875,-14.5625,-36.5625,35,-0.05181884765625,0.00396728515625,0.0,0.9986572265625,359.9375,-0.4375,5.9375
1563492686.717216,359.9375,-0.4375,5.9375,-0.07,-1.01,9.75,0.0,0.01,-0.14,-0.0011111111111111111,0.0,-0.0011111111111111111,-17.1875,-15.0,-36.1875,35,-0.05181884765625,0.00396728515625,0.0,0.9986572265625,359.9375,-0.4375,5.9375
1563492686.755734,359.9375,-0.4375,5.9375,-0.07,-1.01,9.75,0.0,0.01,-0.14,0.0,-0.0011111111111111111,0.0,-16.75,-14.25,-36.5625,35,-0.05181884765625,0.00396728515625,0.0,0.9986572265625,359.9375,-0.4375,5.9375
1563492686.795866,359.9375,-0.4375,5.9375,-0.07,-1.01,9.75,-0.04,0.0,-0.14,0.0,0.0011111111111111111,-0.0011111111111111111,-17.1875,-15.375,-37.0,35,-0.05181884765625,0.00396728515625,0.0,0.9986572265625,359.9375,-0.4375,5.9375
1563492686.835982,359.9375,-0.4375,5.9375,-0.07,-1.01,9.75,0.0,0.01,-0.15,0.0,0.0,0.0,-17.1875,-15.375,-37.0,35,-0.05181884765625,0.00396728515625,0.0,0.9986572265625,359.9375,-0.4375,5.9375
1563492686.871876,359.9375,-0.4375,5.9375,-0.07,-1.01,9.75,-0.01,0.01,-0.2,0.0011111111111111111,-0.0033333333333333335,-0.0022222222222222222,-17.5625,-14.25,-37.0,35,-0.05181884765625,0.00396728515625,0.0,0.9986572265625,359.9375,-0.4375,5.9375
1563492686.909787,359.9375,-0.4375,5.9375,-0.07,-1.01,9.75,-0.01,0.0,-0.15,0.0011111111111111111,-0.0022222222222222222,0.0011111111111111111,-16.375,-14.25,-36.5625,35,-0.05181884765625,0.00396728515625,0.0,0.9986572265625,359.9375,-0.4375,5.9375
1563492686.948029,359.9375,-0.4375,5.9375,-0.07,-1.01,9.75,-0.01,0.03,-0.14,-0.0011111111111111111,0.0011111111111111111,0.0022222222222222222,-17.5625,-14.25,-37.0,35,-0.05181884765625,0.00396728515625,0.0,0.9986572265625,359.9375,-0.4375,5.9375
1563492686.988269,359.9375,-0.4375,5.9375,-0.07,-1.01,9.75,-0.02,0.0,-0.15,0.0022222222222222222,-0.0044444444444444444,0.0011111111111111111,-17.5625,-14.25,-37.0,35,-0.05181884765625,0.00396728515625,0.0,0.9986572265625,359.9375,-0.4375,5.9375
1563492687.029284,359.9375,-0.4375,5.9375,-0.07,-1.01,9.75,-0.02,0.02,-0.14,-0.0011111111111111111,0.0,0.0,-16.375,-14.5625,-37.0,35,-0.05181884765625,0.00396728515625,0.0,0.9986572265625,359.9375,-0.4375,5.9375
1563492687.068682,359.9375,-0.4375,5.9375,-0.07,-1.01,9.75,-0.03,0.0,-0.13,-0.0022222222222222222,-0.0011111111111111111,0.0011111111111111111,-16.375,-14.5625,-37.0,35,-0.05181884765625,0.00396728515625,0.0,0.9986572265625,359.9375,-0.4375,5.9375
1563492687.107246,359.9375,-0.4375,5.9375,-0.07,-1.01,9.75,0.0,0.0,-0.18,-0.0011111111111111111,-0.0033333333333333335,-0.0011111111111111111,-16.375,-14.25,-37.375,35,-0.05181884765625,0.00396728515625,0.0,0.9986572265625,359.9375,-0.4375,5.9375
1563492687.147197,359.9375,-0.4375,5.9375,-0.07,-1.01,9.75,0.0,0.01,-0.14,0.0011111111111111111,0.0,-0.0011111111111111111,-16.375,-14.5625,-37.375,35,-0.05181884765625,0.00396728515625,0.0,0.9986572265625,359.9375,-0.4375,5.9375
1563492687.189269,359.9375,-0.4375,5.9375,-0.07,-1.01,9.75,-0.01,0.0,-0.17,-0.0011111111111111111,0.0011111111111111111,0.0,-16.375,-14.5625,-37.375,35,-0.05181884765625,0.00396728515625,0.0,0.9986572265625,359.9375,-0.4375,5.9375
1563492687.230591,359.9375,-0.4375,5.9375,-0.07,-1.01,9.75,-0.02,0.0,-0.14,0.0,-0.0022222222222222222,0.0,-16.75,-14.25,-36.1875,35,-0.05181884765625,0.00396728515625,0.0,0.9986572265625,359.9375,-0.4375,5.9375
1563492687.269434,359.9375,-0.4375,5.9375,-0.07,-1.01,9.75,-0.03,0.02,-0.13,0.0,-0.0011111111111111111,0.0,-16.75,-15.0,-37.0,35,-0.05181884765625,0.00396728515625,0.0,0.9986572265625,359.9375,-0.4375,5.9375
1563492687.307944,359.9375,-0.4375,5.9375,-0.07,-1.01,9.75,0.01,0.0,-0.17,-0.0011111111111111111,0.0011111111111111111,0.0,-17.875,-14.5625,-36.1875,35,-0.05181884765625,0.00396728515625,0.0,0.9986572265625,359.9375,-0.4375,5.9375
1563492687.347982,359.9375,-0.4375,5.9375,-0.07,-1.01,9.75,0.0,0.0,-0.14,-0.0011111111111111111,-0.0011111111111111111,0.0,-16.75,-14.25,-37.375,35,-0.05181884765625,0.00396728515625,0.0,0.9986572265625,359.9375,-0.4375,5.9375
1563492687.389949,359.9375,-0.4375,5.9375,-0.07,-1.01,9.75,0.0,0.01,-0.16,0.0,0.0,-0.0011111111111111111,-16.75,-14.25,-37.375,35,-0.05181884765625,0.00396728515625,0.0,0.9986572265625,359.9375,-0.4375,5.9375
1563492687.430917,359.9375,-0.4375,5.9375,-0.07,-1.01,9.75,-0.03,0.0,-0.15,0.0011111111111111111,0.0,0.0011111111111111111,-17.1875,-14.5625,-36.1875,35,-0.05181884765625,0.00396728515625,0.0,0.9986572265625,359.9375,-0.4375,5.9375
1563492687.470352,359.9375,-0.4375,5.9375,-0.07,-1.01,9.75,-0.02,0.0,-0.15,0.0011111111111111111,0.0022222222222222222,0.0,-16.75,-15.375,-37.0,35,-0.05181884765625,0.00396728515625,0.0,0.9986572265625,359.9375,-0.4375,5.9375
1563492687.508723,359.9375,-0.4375,5.9375,-0.07,-1.01,9.75,-0.03,0.0,-0.16,0.0,0.0011111111111111111,0.0011111111111111111,-17.1875,-13.875,-37.375,35,-0.05181884765625,0.00396728515625,0.0,0.9986572265625,359.9375,-0.4375,5.9375
1563492687.548798,359.9375,-0.4375,5.9375,-0.07,-1.01,9.75,0.02,0.0,-0.13,0.0,-0.0011111111111111111,0.0,-16.75,-14.5625,-37.0,35,-0.05181884765625,0.00396728515625,0.0,0.9986572265625,359.9375,-0.4375,5.9375
1563492687.590752,359.9375,-0.4375,5.9375,-0.07,-1.01,9.75,-0.02,0.0,-0.14,0.0,0.0022222222222222222,-0.0022222222222222222,-16.75,-14.5625,-37.0,35,-0.05181884765625,0.00396728515625,0.0,0.9986572265625,359.9375,-0.4375,5.9375
1563492687.631725,359.9375,-0.4375,5.9375,-0.07,-1.01,9.75,-0.08,0.0,-0.16,0.0011111111111111111,0.0,-0.0011111111111111111,-16.375,-15.0,-36.1875,35,-0.05181884765625,0.00396728515625,0.0,0.9986572265625,359.9375,-0.4375,5.9375
1563492687.671115,359.9375,-0.4375,5.9375,-0.07,-1.01,9.75,-0.03,0.02,-0.16,-0.0022222222222222222,-0.0011111111111111111,0.0,-17.1875,-14.5625,-35.75,35,-0.05181884765625,0.00396728515625,0.0,0.9986572265625,359.9375,-0.4375,5.9375
1563492687.709428,359.9375,-0.4375,5.9375,-0.07,-1.01,9.75,0.02,0.0,-0.15,-0.0033333333333333335,0.0,-0.0011111111111111111,-17.1875,-15.0,-37.0,35,-0.05181884765625,0.00396728515625,0.0,0.9986572265625,359.9375,-0.4375,5.9375
1563492687.749548,359.9375,-0.4375,5.9375,-0.07,-1.01,9.75,-0.02,0.03,-0.1,0.0,0.0,0.0022222222222222222,-16.375,-14.25,-37.0,35,-0.05181884765625,0.00396728515625,0.0,0.9986572265625,359.9375,-0.4375,5.9375
1563492687.791513,359.9375,-0.4375,5.9375,-0.07,-1.01,9.75,-0.02,0.01,-0.11,-0.0022222222222222222,-0.0011111111111111111,-0.0033333333333333335,-16.375,-14.25,-37.0,35,-0.05181884765625,0.00396728515625,0.0,0.9986572265625,359.9375,-0.4375,5.9375
1563492687.83247,359.9375,-0.4375,5.9375,-0.07,-1.01,9.75,-0.01,-0.01,-0.15,-0.0011111111111111111,0.0011111111111111111,0.0022222222222222222,-16.75,-15.375,-36.1875,35,-0.05181884765625,0.00396728515625,0.0,0.9986572265625,359.9375,-0.4375,5.9375
1563492687.872031,359.9375,-0.4375,5.9375,-0.07,-1.01,9.75,0.01,0.0,-0.15,0.0011111111111111111,0.0044444444444444444,-0.0011111111111111111,-16.75,-15.0,-37.0,35,-0.05181884765625,0.00396728515625,0.0,0.9986572265625,359.9375,-0.4375,5.9375
1563492687.910381,359.9375,-0.4375,5.9375,-0.07,-1.01,9.75,0.01,0.0,-0.15,0.0,0.0022222222222222222,0.0,-16.0625,-14.25,-37.0,35,-0.05181884765625,0.00396728515625,0.0,0.9986572265625,359.9375,-0.4375,5.9375
1563492687.950376,359.9375,-0.4375,5.9375,-0.07,-1.01,9.75,-0.05,0.02,-0.16,0.0,-0.0022222222222222222,-0.0011111111111111111,-17.5625,-15.0,-36.1875,35,-0.05181884765625,0.00396728515625,0.0,0.9986572265625,359.9375,-0.4375,5.9375
1563492687.992312,359.9375,-0.4375,5.9375,-0.07,-1.01,9.75,-0.02,0.02,-0.13,0.0011111111111111111,-0.0022222222222222222,0.0,-17.5625,-15.0,-36.1875,35,-0.05181884765625,0.00396728515625,0.0,0.9986572265625,359.9375,-0.4375,5.9375
1563492688.033331,359.9375,-0.4375,5.9375,-0.07,-1.01,9.75,0.02,0.0,-0.14,-0.0011111111111111111,0.0022222222222222222,-0.0011111111111111111,-17.1875,-14.25,-36.5625,35,-0.05181884765625,0.00396728515625,0.0,0.9986572265625,359.9375,-0.4375,5.9375
1563492688.072724,359.9375,-0.4375,5.9375,-0.07,-1.01,9.75,-0.01,0.0,-0.17,0.0,0.0011111111111111111,0.0,-16.375,-13.875,-36.5625,35,-0.05181884765625,0.00396728515625,0.0,0.9986572265625,359.9375,-0.4375,5.9375
1563492688.111188,359.9375,-0.4375,5.9375,-0.07,-1.01,9.75,-0.05,0.0,-0.16,-0.0011111111111111111,0.0,-0.0022222222222222222,-16.0625,-14.5625,-37.75,35,-0.05181884765625,0.00396728515625,0.0,0.9986572265625,359.9375,-0.4375,5.9375
1563492688.151144,359.9375,-0.4375,5.9375,-0.07,-1.01,9.75,-0.01,0.0,-0.14,0.0,0.0,-0.0022222222222222222,-15.6875,-15.0,-37.375,35,-0.05181884765625,0.00396728515625,0.0,0.9986572265625,359.9375,-0.4375,5.9375
1563492688.193131,359.9375,-0.4375,5.9375,-0.07,-1.01,9.75,0.01,0.0,-0.16,0.0,0.0,-0.0011111111111111111,-15.6875,-15.0,-37.375,35,-0.05181884765625,0.00396728515625,0.0,0.9986572265625,359.9375,-0.4375,5.9375
1563492688.234623,359.9375,-0.4375,5.9375,-0.07,-1.01,9.75,0.02,0.0,-0.18,-0.0022222222222222222,0.0022222222222222222,0.0,-16.375,-14.25,-36.1875,35,-0.05181884765625,0.00396728515625,0.0,0.9986572265625,359.9375,-0.4375,5.9375
1563492688.273482,359.9375,-0.4375,5.9375,-0.07,-1.01,9.75,-0.05,0.0,-0.17,0.0,0.0033333333333333335,-0.0011111111111111111,-16.75,-14.5625,-37.0,35,-0.05181884765625,0.00396728515625,0.0,0.9986572265625,359.9375,-0.4375,5.9375
1563492688.311888,359.9375,-0.4375,5.9375,-0.07,-1.01,9.75,-0.09,0.0,-0.12,-0.0022222222222222222,-0.0022222222222222222,0.0011111111111111111,-17.1875,-15.75,-36.5625,35,-0.05181884765625,0.00396728515625,0.0,0.9986572265625,359.9375,-0.4375,5.9375
1563492688.351928,359.9375,-0.4375,5.9375,-0.07,-1.01,9.75,0.0,0.0,-0.17,0.0,-0.0011111111111111111,0.0011111111111111111,-16.375,-14.5625,-36.5625,35,-0.05181884765625,0.00396728515625,0.0,0.9986572265625,359.9375,-0.4375,5.9375
1563492688.394026,359.9375,-0.4375,5.9375,-0.07,-1.01,9.75,0.05,0.0,-0.18,-0.0011111111111111111,-0.0011111111111111111,0.0,-16.375,-14.5625,-36.5625,35,-0.05181884765625,0.00396728515625,0.0,0.9986572265625,359.9375,-0.4375,5.9375
1563492688.434798,359.9375,-0.4375,5.9375,-0.07,-1.01,9.75,0.0,0.03,-0.18,0.0,-0.0011111111111111111,-0.0011111111111111111,-16.75,-15.0,-36.5625,35,-0.05181884765625,0.00396728515625,0.0,0.9986572265625,359.9375,-0.4375,5.9375
1563492688.474217,359.9375,-0.4375,5.9375,-0.07,-1.01,9.75,-0.04,0.0,-0.15,0.0011111111111111111,0.0011111111111111111,0.0022222222222222222,-17.1875,-15.0,-35.75,35,-0.05181884765625,0.00396728515625,0.0,0.9986572265625,359.9375,-0.4375,5.9375
1563492688.512719,359.9375,-0.4375,5.9375,-0.07,-1.01,9.75,-0.04,0.0,-0.14,-0.0022222222222222222,0.0011111111111111111,0.0011111111111111111,-16.75,-15.0,-37.75,35,-0.05181884765625,0.00396728515625,0.0,0.9986572265625,359.9375,-0.4375,5.9375
1563492688.552729,359.9375,-0.4375,5.9375,-0.07,-1.01,9.75,0.0,0.02,-0.15,0.0011111111111111111,0.0011111111111111111,0.0022222222222222222,-16.0625,-14.5625,-37.0,35,-0.05181884765625,0.00396728515625,0.0,0.9986572265625,359.9375,-0.4375,5.9375
1563492688.594763,359.9375,-0.4375,5.9375,-0.07,-1.01,9.75,0.01,0.02,-0.14,0.0,0.0,0.0,-16.0625,-14.5625,-37.0,35,-0.05181884765625,0.00396728515625,0.0,0.9986572265625,359.9375,-0.4375,5.9375
1563492688.635748,359.9375,-0.4375,5.9375,-0.07,-1.01,9.75,-0.03,0.0,-0.15,0.0,0.0011111111111111111,0.0033333333333333335,-17.1875,-14.25,-36.5625,35,-0.05181884765625,0.00396728515625,0.0,0.9986572265625,359.9375,-0.4375,5.9375
1563492688.675033,359.9375,-0.4375,5.9375,-0.07,-1.01,9.75,-0.01,0.0,-0.13,0.0,0.0011111111111111111,0.0011111111111111111,-17.1875,-15.0,-36.1875,35,-0.05181884765625,0.00396728515625,0.0,0.9986572265625,359.9375,-0.4375,5.9375
1563492688.713533,359.9375,-0.4375,5.9375,-0.07,-1.01,9.75,0.0,0.03,-0.13,-0.0011111111111111111,0.0011111111111111111,0.0022222222222222222,-16.75,-14.5625,-37.375,35,-0.05181884765625,0.00396728515625,0.0,0.9986572265625,359.9375,-0.4375,5.9375
1563492688.753515,359.9375,-0.4375,5.9375,-0.07,-1.01,9.75,0.0,0.0,-0.13,-0.0022222222222222222,0.0,-0.0022222222222222222,-17.1875,-15.375,-37.0,35,-0.05181884765625,0.00396728515625,0.0,0.9986572265625,359.9375,-0.4375,5.9375
1563492688.795524,359.9375,-0.4375,5.9375,-0.07,-1.01,9.75,-0.01,0.0,-0.15,0.0011111111111111111,-0.0011111111111111111,-0.0011111111111111111,-17.1875,-15.375,-37.0,35,-0.05181884765625,0.00396728515625,0.0,0.9986572265625,359.9375,-0.4375,5.9375
1563492688.836484,359.9375,-0.4375,5.9375,-0.07,-1.01,9.75,-0.01,0.01,-0.15,-0.0022222222222222222,0.0,-0.0011111111111111111,-16.375,-14.5625,-36.5625,35,-0.05181884765625,0.00396728515625,0.0,0.9986572265625,359.9375,-0.4375,5.9375
1563492688.875893,359.9375,-0.4375,5.9375,-0.07,-1.01,9.75,0.0,0.01,-0.18,-0.0022222222222222222,0.0022222222222222222,-0.0011111111111111111,-16.75,-15.0,-36.5625,35,-0.05181884765625,0.00396728515625,0.0,0.9986572265625,359.9375,-0.4375,5.9375
1563492688.914269,359.9375,-0.4375,5.9375,-0.07,-1.01,9.75,-0.01,0.0,-0.14,0.0,0.0,-0.0011111111111111111,-16.375,-13.875,-36.5625,35,-0.05181884765625,0.00396728515625,0.0,0.9986572265625,359.9375,-0.4375,5.9375
1563492688.954344,359.9375,-0.4375,5.9375,-0.07,-1.01,9.75,-0.05,0.0,-0.15,0.0022222222222222222,0.0011111111111111111,0.0,-16.75,-13.875,-37.0,35,-0.05181884765625,0.00396728515625,0.0,0.9986572265625,359.9375,-0.4375,5.9375
1563492688.996239,359.9375,-0.4375,5.9375,-0.07,-1.01,9.75,-0.01,0.0,-0.16,-0.0011111111111111111,0.0,-0.0011111111111111111,-16.75,-13.875,-37.0,35,-0.05181884765625,0.00396728515625,0.0,0.9986572265625,359.9375,-0.4375,5.9375
1563492689.037226,359.9375,-0.4375,5.9375,-0.07,-1.01,9.75,0.0,0.0,-0.16,0.0,0.0011111111111111111,-0.0022222222222222222,-17.1875,-14.5625,-36.5625,35,-0.05181884765625,0.00396728515625,0.0,0.9986572265625,359.9375,-0.4375,5.9375
1563492689.076657,359.9375,-0.4375,5.9375,-0.07,-1.01,9.75,-0.01,0.02,-0.2,0.0,0.0,0.0022222222222222222,-16.0625,-15.0,-37.0,35,-0.05181884765625,0.00396728515625,0.0,0.9986572265625,359.9375,-0.4375,5.9375
1563492689.115171,359.9375,-0.4375,5.9375,-0.07,-1.01,9.75,-0.02,0.01,-0.15,0.0,0.0,-0.0011111111111111111,-16.75,-14.25,-37.0,35,-0.05181884765625,0.00396728515625,0.0,0.9986572265625,359.9375,-0.4375,5.9375
1563492689.155151,359.9375,-0.4375,5.9375,-0.07,-1.01,9.75,-0.05,0.0,-0.14,0.0022222222222222222,-0.0011111111111111111,-0.0022222222222222222,-16.75,-15.0,-36.5625,35,-0.05181884765625,0.00396728515625,0.0,0.9986572265625,359.9375,-0.4375,5.9375
1563492689.197189,359.9375,-0.4375,5.9375,-0.07,-1.01,9.75,0.01,0.01,-0.16,0.0011111111111111111,-0.0022222222222222222,-0.0011111111111111111,-16.75,-15.0,-36.5625,35,-0.05181884765625,0.00396728515625,0.0,0.9986572265625,359.9375,-0.4375,5.9375
1563492689.238506,359.9375,-0.4375,5.9375,-0.07,-1.01,9.75,0.0,0.0,-0.18,-0.0011111111111111111,-0.0011111111111111111,-0.0011111111111111111,-16.75,-15.0,-36.1875,35,-0.05181884765625,0.00396728515625,0.0,0.9986572265625,359.9375,-0.4375,5.9375
1563492689.27741,359.9375,-0.4375,5.9375,-0.07,-1.01,9.75,-0.04,0.0,-0.15,0.0,-0.0022222222222222222,-0.0011111111111111111,-16.0625,-14.5625,-37.375,35,-0.05181884765625,0.00396728515625,0.0,0.9986572265625,359.9375,-0.4375,5.9375
1563492689.315846,359.9375,-0.4375,5.9375,-0.07,-1.01,9.75,-0.01,0.01,-0.16,-0.0011111111111111111,0.0,0.0,-16.75,-13.875,-37.375,35,-0.05181884765625,0.00396728515625,0.0,0.9986572265625,359.9375,-0.4375,5.9375
1563492689.355898,359.9375,-0.4375,5.9375,-0.07,-1.01,9.75,0.0,0.0,-0.14,0.0011111111111111111,0.0,0.0011111111111111111,-16.375,-14.5625,-38.1875,35,-0.05181884765625,0.00396728515625,0.0,0.9986572265625,359.9375,-0.4375,5.9375
1563492689.397892,359.9375,-0.4375,5.9375,-0.07,-1.01,9.75,-0.02,0.02,-0.16,0.0011111111111111111,-0.0011111111111111111,-0.0011111111111111111,-16.375,-14.5625,-38.1875,35,-0.05181884765625,0.00396728515625,0.0,0.9986572265625,359.9375,-0.4375,5.9375
1563492689.438887,359.9375,-0.4375,5.9375,-0.07,-1.01,9.75,0.0,0.02,-0.15,0.0011111111111111111,0.0011111111111111111,0.0022222222222222222,-16.375,-14.5625,-37.0,35,-0.05181884765625,0.00396728515625,0.0,0.9986572265625,359.9375,-0.4375,5.9375
1563492689.478221,359.9375,-0.4375,5.9375,-0.07,-1.01,9.75,0.0,0.0,-0.12,0.0011111111111111111,-0.0011111111111111111,0.0011111111111111111,-16.75,-15.0,-36.5625,35,-0.05181884765625,0.00396728515625,0.0,0.9986572265625,359.9375,-0.4375,5.9375
1563492689.51665,359.9375,-0.4375,5.9375,-0.07,-1.01,9.75,0.0,0.0,-0.16,0.0022222222222222222,-0.0033333333333333335,0.0011111111111111111,-16.375,-15.0,-36.5625,35,-0.05181884765625,0.00396728515625,0.0,0.9986572265625,359.9375,-0.4375,5.9375
1563492689.556702,359.9375,-0.4375,5.9375,-0.07,-1.01,9.75,-0.02,0.01,-0.15,0.0022222222222222222,-0.0022222222222222222,0.0011111111111111111,-17.1875,-15.0,-36.5625,35,-0.05181884765625,0.00396728515625,0.0,0.9986572265625,359.9375,-0.4375,5.9375
1563492689.598685,359.9375,-0.4375,5.9375,-0.07,-1.01,9.75,-0.01,0.01,-0.16,0.0011111111111111111,0.0,-0.0011111111111111111,-17.1875,-15.0,-36.5625,35,-0.05181884765625,0.00396728515625,0.0,0.9986572265625,359.9375,-0.4375,5.9375
1563492689.639646,359.9375,-0.4375,5.9375,-0.07,-1.01,9.75,-0.01,0.0,-0.16,0.0011111111111111111,0.0022222222222222222,0.0,-16.75,-15.375,-38.1875,35,-0.05181884765625,0.00396728515625,0.0,0.9986572265625,359.9375,-0.4375,5.9375
1563492689.67901,359.9375,-0.4375,5.9375,-0.07,-1.01,9.75,0.0,0.01,-0.15,0.0,0.0,0.0022222222222222222,-16.375,-13.875,-37.0,35,-0.05181884765625,0.00396728515625,0.0,0.9986572265625,359.9375,-0.4375,5.9375
1563492689.717454,359.9375,-0.4375,5.9375,-0.07,-1.01,9.75,-0.01,0.0,-0.16,-0.0011111111111111111,0.0,0.0,-16.0625,-14.5625,-36.5625,35,-0.05181884765625,0.00396728515625,0.0,0.9986572265625,359.9375,-0.4375,5.9375
1563492689.757502,359.9375,-0.4375,5.9375,-0.07,-1.01,9.75,-0.03,0.0,-0.17,0.0,-0.0011111111111111111,0.0033333333333333335,-16.75,-14.5625,-37.375,35,-0.05181884765625,0.00396728515625,0.0,0.9986572265625,359.9375,-0.4375,5.9375
1563492689.799485,359.9375,-0.4375,5.9375,-0.07,-1.01,9.75,-0.01,0.04,-0.2,-0.0011111111111111111,-0.0011111111111111111,0.0011111111111111111,-16.75,-14.5625,-37.375,35,-0.05181884765625,0.00396728515625,0.0,0.9986572265625,359.9375,-0.4375,5.9375
1563492689.840415,359.9375,-0.4375,5.9375,-0.07,-1.01,9.75,0.02,0.0,-0.18,0.0,0.0011111111111111111,-0.0011111111111111111,-16.75,-14.5625,-36.1875,35,-0.05181884765625,0.00396728515625,0.0,0.9986572265625,359.9375,-0.4375,5.9375
1563492689.879844,359.9375,-0.4375,5.9375,-0.07,-1.01,9.75,-0.01,0.0,-0.16,-0.0011111111111111111,0.0,0.0011111111111111111,-16.375,-14.25,-37.375,35,-0.05181884765625,0.00396728515625,0.0,0.9986572265625,359.9375,-0.4375,5.9375
1563492689.918247,359.9375,-0.4375,5.9375,-0.07,-1.01,9.75,-0.01,0.01,-0.14,-0.0011111111111111111,-0.0011111111111111111,0.0,-16.375,-15.0,-37.0,35,-0.05181884765625,0.00396728515625,0.0,0.9986572265625,359.9375,-0.4375,5.9375
1563492689.958283,359.9375,-0.4375,5.9375,-0.07,-1.01,9.75,-0.02,0.01,-0.13,-0.0011111111111111111,-0.0011111111111111111,-0.0011111111111111111,-17.1875,-13.875,-37.0,35,-0.05181884765625,0.00396728515625,0.0,0.9986572265625,359.9375,-0.4375,5.9375
1563492690.000274,359.9375,-0.4375,5.9375,-0.07,-1.01,9.75,-0.02,0.0,-0.16,0.0,-0.0033333333333333335,-0.0011111111111111111,-17.1875,-13.875,-37.0,35,-0.05181884765625,0.00396728515625,0.0,0.9986572265625,359.9375,-0.4375,5.9375
1563492690.041209,359.9375,-0.4375,5.9375,-0.07,-1.01,9.75,-0.01,0.0,-0.17,0.0011111111111111111,0.0022222222222222222,0.0011111111111111111,-16.0625,-14.25,-35.75,35,-0.05181884765625,0.00396728515625,0.0,0.9986572265625,359.9375,-0.4375,5.9375
1563492690.080633,359.9375,-0.4375,5.9375,-0.07,-1.01,9.75,0.01,0.0,-0.16,0.0022222222222222222,-0.0011111111111111111,0.0022222222222222222,-16.375,-15.375,-37.0,35,-0.05181884765625,0.00396728515625,0.0,0.9986572265625,359.9375,-0.4375,5.9375
1563492690.119068,359.9375,-0.4375,5.9375,-0.07,-1.01,9.75,0.0,0.0,-0.19,0.0,0.0,-0.0011111111111111111,-16.75,-14.25,-37.0,35,-0.05181884765625,0.00396728515625,0.0,0.9986572265625,359.9375,-0.4375,5.9375
1563492690.159065,359.9375,-0.4375,5.9375,-0.07,-1.01,9.75,0.01,0.0,-0.19,-0.0011111111111111111,-0.0011111111111111111,-0.0011111111111111111,-16.75,-14.25,-36.5625,35,-0.05181884765625,0.00396728515625,0.0,0.9986572265625,359.9375,-0.4375,5.9375
1563492690.201017,359.9375,-0.4375,5.9375,-0.07,-1.01,9.75,-0.02,0.0,-0.17,0.0,0.0,0.0,-16.75,-14.25,-36.5625,35,-0.05181884765625,0.00396728515625,0.0,0.9986572265625,359.9375,-0.4375,5.9375
1563492690.242479,359.9375,-0.4375,5.9375,-0.07,-1.01,9.75,-0.03,0.01,-0.17,0.0011111111111111111,0.0,0.0,-16.375,-14.25,-36.5625,35,-0.05181884765625,0.00396728515625,0.0,0.9986572265625,359.9375,-0.4375,5.9375
1563492690.281398,359.9375,-0.4375,5.9375,-0.07,-1.01,9.75,0.0,0.03,-0.2,0.0,0.0022222222222222222,0.0022222222222222222,-16.375,-14.25,-36.5625,35,-0.05181884765625,0.00396728515625,0.0,0.9986572265625,359.9375,-0.4375,5.9375
1563492690.319893,359.9375,-0.4375,5.9375,-0.07,-1.01,9.75,0.0,0.0,-0.16,0.0,0.0033333333333333335,0.0,-16.375,-14.25,-37.0,35,-0.05181884765625,0.00396728515625,0.0,0.9986572265625,359.9375,-0.4375,5.9375
1563492690.359882,359.9375,-0.4375,5.9375,-0.07,-1.01,9.75,-0.02,0.02,-0.16,0.0,0.0,0.0,-16.75,-15.0,-37.75,35,-0.05181884765625,0.00396728515625,0.0,0.9986572265625,359.9375,-0.4375,5.9375
1563492690.401862,359.9375,-0.4375,5.9375,-0.07,-1.01,9.75,0.0,0.01,-0.15,0.0011111111111111111,0.0011111111111111111,0.0,-16.75,-15.0,-37.75,35,-0.05181884765625,0.00396728515625,0.0,0.9986572265625,359.9375,-0.4375,5.9375
1563492690.44286,359.9375,-0.4375,5.9375,-0.07,-1.01,9.75,-0.02,0.0,-0.13,0.0011111111111111111,0.0033333333333333335,0.0,-16.75,-14.25,-35.75,35,-0.05181884765625,0.00396728515625,0.0,0.9986572265625,359.9375,-0.4375,5.9375
1563492690.482277,359.9375,-0.4375,5.9375,-0.07,-1.01,9.75,-0.02,0.02,-0.17,0.0011111111111111111,-0.0011111111111111111,0.0011111111111111111,-16.375,-14.5625,-37.375,35,-0.05181884765625,0.00396728515625,0.0,0.9986572265625,359.9375,-0.4375,5.9375
1563492690.520725,359.9375,-0.4375,5.9375,-0.07,-1.01,9.75,0.01,-0.01,-0.17,-0.0011111111111111111,0.0,0.0,-16.75,-15.0,-36.1875,35,-0.05181884765625,0.00396728515625,0.0,0.9986572265625,359.9375,-0.4375,5.9375
1563492690.560709,359.9375,-0.4375,5.9375,-0.07,-1.01,9.75,0.0,0.0,-0.14,-0.0022222222222222222,0.0,0.0011111111111111111,-17.1875,-14.5625,-37.375,35,-0.05181884765625,0.00396728515625,0.0,0.9986572265625,359.9375,-0.4375,5.9375
1563492690.602624,359.9375,-0.4375,5.9375,-0.07,-1.01,9.75,-0.01,0.02,-0.15,-0.0011111111111111111,0.0022222222222222222,-0.0022222222222222222,-17.1875,-14.5625,-37.375,35,-0.05181884765625,0.00396728515625,0.0,0.9986572265625,359.9375,-0.4375,5.9375
1563492690.643623,359.9375,-0.4375,5.9375,-0.07,-1.01,9.75,-0.02,0.0,-0.15,0.0011111111111111111,0.0,0.0011111111111111111,-17.1875,-14.5625,-37.375,35,-0.05181884765625,0.00396728515625,0.0,0.9986572265625,359.9375,-0.4375,5.9375
1563492690.683043,359.9375,-0.4375,5.9375,-0.07,-1.01,9.75,0.0,0.01,-0.15,-0.0011111111111111111,0.0022222222222222222,-0.0011111111111111111,-16.75,-15.0,-36.1875,35,-0.05181884765625,0.00396728515625,0.0,0.9986572265625,359.9375,-0.4375,5.9375
1563492690.721503,359.9375,-0.4375,5.9375,-0.07,-1.01,9.75,0.0,0.01,-0.15,0.0,0.0033333333333333335,0.0,-16.375,-14.25,-37.0,35,-0.05181884765625,0.00396728515625,0.0,0.9986572265625,359.9375,-0.4375,5.9375
1563492690.761509,359.9375,-0.4375,5.9375,-0.07,-1.01,9.75,-0.01,0.0,-0.14,0.0,0.0022222222222222222,0.0,-16.0625,-14.25,-37.375,35,-0.05181884765625,0.00396728515625,0.0,0.9986572265625,359.9375,-0.4375,5.9375
1563492690.80348,359.9375,-0.4375,5.9375,-0.07,-1.01,9.75,-0.02,0.01,-0.17,0.0022222222222222222,0.0,0.0011111111111111111,-16.0625,-14.25,-37.375,35,-0.05181884765625,0.00396728515625,0.0,0.9986572265625,359.9375,-0.4375,5.9375
1563492690.844445,359.9375,-0.4375,5.9375,-0.07,-1.01,9.75,-0.02,0.0,-0.16,0.0,0.0,0.0011111111111111111,-16.75,-15.0,-37.0,35,-0.05181884765625,0.00396728515625,0.0,0.9986572265625,359.9375,-0.4375,5.9375
1563492690.883892,359.9375,-0.4375,5.9375,-0.07,-1.01,9.75,0.0,0.01,-0.17,0.0,-0.0022222222222222222,0.0011111111111111111,-17.5625,-14.5625,-36.1875,35,-0.05181884765625,0.00396728515625,0.0,0.9986572265625,359.9375,-0.4375,5.9375
1563492690.922401,359.9375,-0.4375,5.9375,-0.07,-1.01,9.75,0.0,0.02,-0.14,0.0011111111111111111,-0.0011111111111111111,-0.0011111111111111111,-16.75,-13.875,-37.0,35,-0.05181884765625,0.00396728515625,0.0,0.9986572265625,359.9375,-0.4375,5.9375
1563492690.962319,359.9375,-0.4375,5.9375,-0.07,-1.01,9.75,-0.02,0.0,-0.14,0.0011111111111111111,0.0,0.0011111111111111111,-16.375,-15.0,-37.0,35,-0.05181884765625,0.00396728515625,0.0,0.9986572265625,359.9375,-0.4375,5.9375
1563492691.002543,359.9375,-0.4375,5.9375,-0.07,-1.01,9.75,0.0,0.0,-0.17,0.0,-0.0011111111111111111,0.0011111111111111111,-16.375,-15.0,-37.0,35,-0.05181884765625,0.00396728515625,0.0,0.9986572265625,359.9375,-0.4375,5.9375
1563492691.038491,359.9375,-0.4375,5.9375,-0.07,-1.01,9.75,0.0,0.0,-0.15,0.0022222222222222222,0.0,0.0033333333333333335,-16.75,-15.375,-37.375,35,-0.05181884765625,0.00396728515625,0.0,0.9986572265625,359.9375,-0.4375,5.9375
1563492691.076381,359.9375,-0.4375,5.9375,-0.07,-1.01,9.75,-0.03,0.03,-0.16,0.0,0.0011111111111111111,0.0022222222222222222,-17.1875,-14.25,-37.375,35,-0.05181884765625,0.00396728515625,0.0,0.9986572265625,359.9375,-0.4375,5.9375
1563492691.114782,359.9375,-0.4375,5.9375,-0.07,-1.01,9.75,-0.02,0.02,-0.15,0.0,0.0,0.0,-16.375,-15.0,-37.0,35,-0.05181884765625,0.00396728515625,0.0,0.9986572265625,359.9375,-0.4375,5.9375
1563492691.154991,359.9375,-0.4375,5.9375,-0.07,-1.01,9.75,0.0,0.02,-0.16,-0.0011111111111111111,0.0,0.0,-16.375,-15.0,-37.0,35,-0.05181884765625,0.00396728515625,0.0,0.9986572265625,359.9375,-0.4375,5.9375
1563492691.195935,359.9375,-0.4375,5.9375,-0.07,-1.01,9.75,-0.01,0.0,-0.17,0.0011111111111111111,0.0,-0.0022222222222222222,-16.0625,-15.375,-37.75,35,-0.05181884765625,0.00396728515625,0.0,0.9986572265625,359.9375,-0.4375,5.9375
1563492691.235218,359.9375,-0.4375,5.9375,-0.07,-1.01,9.75,-0.04,0.0,-0.2,0.0022222222222222222,0.0,0.0022222222222222222,-16.75,-15.0,-36.5625,35,-0.05181884765625,0.00396728515625,0.0,0.9986572265625,359.9375,-0.4375,5.9375
1563492691.273691,359.9375,-0.4375,5.9375,-0.07,-1.01,9.75,0.0,0.0,-0.17,-0.0011111111111111111,-0.0011111111111111111,-0.0033333333333333335,-16.0625,-13.875,-37.375,35,-0.05181884765625,0.00396728515625,0.0,0.9986572265625,359.9375,-0.4375,5.9375
1563492691.313884,359.9375,-0.4375,5.9375,-0.07,-1.01,9.75,0.0,0.01,-0.16,-0.0011111111111111111,0.0011111111111111111,-0.0022222222222222222,-17.1875,-15.0,-37.375,35,-0.05181884765625,0.00396728515625,0.0,0.9986572265625,359.9375,-0.4375,5.9375
1563492691.355718,359.9375,-0.4375,5.9375,-0.07,-1.01,9.75,-0.02,0.0,-0.15,0.0022222222222222222,0.0022222222222222222,-0.0022222222222222222,-17.1875,-15.0,-37.375,35,-0.05181884765625,0.00396728515625,0.0,0.9986572265625,359.9375,-0.4375,5.9375
1563492691.396751,359.9375,-0.4375,5.9375,-0.07,-1.01,9.75,-0.03,0.01,-0.14,0.0,0.0033333333333333335,-0.0022222222222222222,-16.75,-14.5625,-37.375,35,-0.05181884765625,0.00396728515625,0.0,0.9986572265625,359.9375,-0.4375,5.9375
1563492691.436044,359.9375,-0.4375,5.9375,-0.07,-1.01,9.75,-0.02,0.04,-0.16,-0.0011111111111111111,0.0,0.0022222222222222222,-16.75,-15.0,-34.875,35,-0.05181884765625,0.00396728515625,0.0,0.9986572265625,359.9375,-0.4375,5.9375
1563492691.474536,359.9375,-0.4375,5.9375,-0.07,-1.01,9.75,0.0,0.01,-0.16,0.0011111111111111111,0.0022222222222222222,-0.0011111111111111111,-16.0625,-15.0,-38.1875,35,-0.05181884765625,0.00396728515625,0.0,0.9986572265625,359.9375,-0.4375,5.9375
1563492691.514694,359.9375,-0.4375,5.9375,-0.07,-1.01,9.75,-0.03,0.01,-0.15,0.0022222222222222222,-0.0022222222222222222,-0.0011111111111111111,-16.375,-14.5625,-38.1875,35,-0.05181884765625,0.00396728515625,0.0,0.9986572265625,359.9375,-0.4375,5.9375
1563492691.556523,359.9375,-0.4375,5.9375,-0.07,-1.01,9.75,0.0,0.01,-0.14,0.0,-0.0011111111111111111,-0.0011111111111111111,-16.375,-14.5625,-38.1875,35,-0.05181884765625,0.00396728515625,0.0,0.9986572265625,359.9375,-0.4375,5.9375
1563492691.597544,359.9375,-0.4375,5.9375,-0.07,-1.01,9.75,0.01,0.0,-0.16,-0.0011111111111111111,0.0011111111111111111,-0.0022222222222222222,-17.1875,-15.375,-37.0,35,-0.05181884765625,0.00396728515625,0.0,0.9986572265625,359.9375,-0.4375,5.9375
1563492691.636904,359.9375,-0.4375,5.9375,-0.07,-1.01,9.75,-0.03,0.01,-0.16,0.0011111111111111111,-0.0022222222222222222,-0.0011111111111111111,-17.5625,-15.375,-37.375,35,-0.05181884765625,0.00396728515625,0.0,0.9986572265625,359.9375,-0.4375,5.9375
1563492691.675399,359.9375,-0.4375,5.9375,-0.07,-1.01,9.75,-0.04,0.0,-0.18,0.0022222222222222222,0.0022222222222222222,0.0011111111111111111,-16.75,-14.5625,-36.1875,35,-0.05181884765625,0.00396728515625,0.0,0.9986572265625,359.9375,-0.4375,5.9375
1563492691.715503,359.9375,-0.4375,5.9375,-0.07,-1.01,9.75,-0.01,0.0,-0.16,0.0,-0.0011111111111111111,0.0,-16.375,-13.875,-37.0,35,-0.05181884765625,0.00396728515625,0.0,0.9986572265625,359.9375,-0.4375,5.9375
1563492691.757379,359.9375,-0.4375,5.9375,-0.07,-1.01,9.75,0.0,0.01,-0.16,0.0011111111111111111,0.0022222222222222222,0.0,-16.375,-13.875,-37.0,35,-0.05181884765625,0.00396728515625,0.0,0.9986572265625,359.9375,-0.4375,5.9375
1563492691.798392,359.9375,-0.4375,5.9375,-0.07,-1.01,9.75,0.0,0.02,-0.17,-0.0011111111111111111,0.0011111111111111111,0.0011111111111111111,-16.375,-13.875,-35.75,35,-0.05181884765625,0.00396728515625,0.0,0.9986572265625,359.9375,-0.4375,5.9375
1563492691.837742,359.9375,-0.4375,5.9375,-0.07,-1.01,9.75,-0.01,0.0,-0.15,0.0011111111111111111,-0.0022222222222222222,0.0022222222222222222,-16.0625,-14.5625,-35.75,35,-0.05181884765625,0.00396728515625,0.0,0.9986572265625,359.9375,-0.4375,5.9375
1563492691.876189,359.9375,-0.4375,5.9375,-0.07,-1.01,9.75,-0.03,0.0,-0.18,0.0011111111111111111,0.0022222222222222222,0.0011111111111111111,-16.0625,-15.0,-37.0,35,-0.05181884765625,0.00396728515625,0.0,0.9986572265625,359.9375,-0.4375,5.9375
1563492691.916276,359.9375,-0.4375,5.9375,-0.07,-1.01,9.75,-0.01,0.01,-0.14,0.0,0.0011111111111111111,0.0011111111111111111,-16.0625,-15.0,-37.0,35,-0.05181884765625,0.00396728515625,0.0,0.9986572265625,359.9375,-0.4375,5.9375
1563492691.958109,359.9375,-0.4375,5.9375,-0.07,-1.01,9.75,0.0,0.01,-0.16,0.0011111111111111111,0.0011111111111111111,0.0011111111111111111,-16.0625,-15.0,-37.0,35,-0.05181884765625,0.00396728515625,0.0,0.9986572265625,359.9375,-0.4375,5.9375
1563492691.999143,359.9375,-0.4375,5.9375,-0.07,-1.01,9.75,0.0,0.01,-0.2,0.0,0.0,-0.0011111111111111111,-16.75,-14.25,-37.0,35,-0.05181884765625,0.00396728515625,0.0,0.9986572265625,359.9375,-0.4375,5.9375
1563492692.038528,359.9375,-0.4375,5.9375,-0.07,-1.01,9.75,-0.02,0.01,-0.14,0.0022222222222222222,-0.0022222222222222222,0.0011111111111111111,-16.75,-15.0,-37.75,35,-0.05181884765625,0.00396728515625,0.0,0.9986572265625,359.9375,-0.4375,5.9375
1563492692.076958,359.9375,-0.4375,5.9375,-0.07,-1.01,9.75,-0.03,0.03,-0.14,0.0011111111111111111,0.0011111111111111111,0.0011111111111111111,-16.75,-13.875,-37.0,35,-0.05181884765625,0.00396728515625,0.0,0.9986572265625,359.9375,-0.4375,5.9375
1563492692.117119,359.9375,-0.4375,5.9375,-0.07,-1.01,9.75,-0.01,0.0,-0.14,-0.0011111111111111111,-0.0011111111111111111,-0.0011111111111111111,-17.5625,-15.0,-37.75,35,-0.05181884765625,0.00396728515625,0.0,0.9986572265625,359.9375,-0.4375,5.9375
1563492692.158916,359.9375,-0.4375,5.9375,-0.07,-1.01,9.75,0.0,0.01,-0.15,0.0,0.0011111111111111111,0.0022222222222222222,-17.5625,-15.0,-37.75,35,-0.05181884765625,0.00396728515625,0.0,0.9986572265625,359.9375,-0.4375,5.9375
1563492692.199943,359.9375,-0.4375,5.9375,-0.07,-1.01,9.75,-0.03,0.01,-0.19,0.0,0.0011111111111111111,0.0,-16.375,-15.0,-37.75,35,-0.05181884765625,0.00396728515625,0.0,0.9986572265625,359.9375,-0.4375,5.9375
1563492692.239263,359.9375,-0.4375,5.9375,-0.07,-1.01,9.75,-0.04,0.0,-0.15,0.0,0.0,0.0033333333333333335,-17.1875,-14.25,-37.75,35,-0.05181884765625,0.00396728515625,0.0,0.9986572265625,359.9375,-0.4375,5.9375
1563492692.277773,359.9375,-0.4375,5.9375,-0.07,-1.01,9.75,0.0,0.01,-0.14,-0.0011111111111111111,0.0011111111111111111,0.0011111111111111111,-16.375,-15.0,-37.0,35,-0.05181884765625,0.00396728515625,0.0,0.9986572265625,359.9375,-0.4375,5.9375
1563492692.317947,359.9375,-0.4375,5.9375,-0.07,-1.01,9.75,0.01,0.02,-0.14,0.0,0.0011111111111111111,-0.0022222222222222222,-16.75,-15.0,-36.5625,35,-0.05181884765625,0.00396728515625,0.0,0.9986572265625,359.9375,-0.4375,5.9375
1563492692.359832,359.9375,-0.4375,5.9375,-0.07,-1.01,9.75,-0.08,0.02,-0.17,0.0,0.0011111111111111111,-0.0011111111111111111,-16.75,-15.0,-36.5625,35,-0.05181884765625,0.00396728515625,0.0,0.9986572265625,359.9375,-0.4375,5.9375
1563492692.400819,359.9375,-0.4375,5.9375,-0.07,-1.01,9.75,-0.03,0.0,-0.12,-0.0022222222222222222,-0.0022222222222222222,0.0011111111111111111,-16.75,-14.25,-36.5625,35,-0.05181884765625,0.00396728515625,0.0,0.9986572265625,359.9375,-0.4375,5.9375
1563492692.440186,359.9375,-0.4375,5.9375,-0.07,-1.01,9.75,0.05,-0.02,-0.14,0.0,0.0011111111111111111,-0.0022222222222222222,-17.1875,-15.0,-36.1875,35,-0.05181884765625,0.00396728515625,0.0,0.9986572265625,359.9375,-0.4375,5.9375
1563492692.478497,359.9375,-0.4375,5.9375,-0.07,-1.01,9.75,0.02,0.03,-0.13,0.0022222222222222222,0.0011111111111111111,0.0011111111111111111,-16.375,-15.0,-37.0,35,-0.05181884765625,0.00396728515625,0.0,0.9986572265625,359.9375,-0.4375,5.9375
1563492692.518731,359.9375,-0.4375,5.9375,-0.07,-1.01,9.75,-0.09,0.04,-0.14,0.0,-0.0011111111111111111,-0.0022222222222222222,-16.75,-14.5625,-36.1875,35,-0.05181884765625,0.00396728515625,0.0,0.9986572265625,359.9375,-0.4375,5.9375
1563492692.560569,359.9375,-0.4375,5.9375,-0.07,-1.01,9.75,0.0,-0.02,-0.14,-0.0011111111111111111,0.0011111111111111111,0.0,-16.75,-14.5625,-36.1875,35,-0.05181884765625,0.00396728515625,0.0,0.9986572265625,359.9375,-0.4375,5.9375
1563492692.601611,359.9375,-0.4375,5.9375,-0.07,-1.01,9.75,0.04,0.0,-0.15,0.0,0.0,0.0044444444444444444,-17.1875,-15.0,-37.0,35,-0.05181884765625,0.00396728515625,0.0,0.9986572265625,359.9375,-0.4375,5.9375
1563492692.640934,359.9375,-0.4375,5.9375,-0.07,-1.01,9.75,0.0,0.06,-0.18,0.0011111111111111111,0.0022222222222222222,-0.0011111111111111111,-16.375,-14.5625,-36.5625,35,-0.05181884765625,0.00396728515625,0.0,0.9986572265625,359.9375,-0.4375,5.9375
1563492692.679371,359.9375,-0.4375,5.9375,-0.07,-1.01,9.75,-0.05,0.0,-0.13,0.0,-0.0011111111111111111,-0.0044444444444444444,-16.75,-13.875,-37.0,35,-0.05181884765625,0.00396728515625,0.0,0.9986572265625,359.9375,-0.4375,5.9375
1563492692.719563,359.9375,-0.4375,5.9375,-0.07,-1.01,9.75,-0.04,0.0,-0.13,0.0022222222222222222,-0.0011111111111111111,0.0,-16.375,-13.875,-36.5625,35,-0.05181884765625,0.00396728515625,0.0,0.9986572265625,359.9375,-0.4375,5.9375
1563492692.763171,359.9375,-0.4375,5.9375,-0.07,-1.01,9.75,0.0,0.05,-0.12,0.0011111111111111111,0.0022222222222222222,0.0,-16.375,-13.875,-36.5625,35,-0.05181884765625,0.00396728515625,0.0,0.9986572265625,359.9375,-0.4375,5.9375
1563492692.80415,359.9375,-0.4375,5.9375,-0.07,-1.01,9.75,0.02,0.02,-0.15,0.0,0.0033333333333333335,-0.0022222222222222222,-16.75,-14.5625,-36.1875,35,-0.05181884765625,0.00396728515625,0.0,0.9986572265625,359.9375,-0.4375,5.9375
1563492692.843531,359.9375,-0.4375,5.9375,-0.07,-1.01,9.75,0.0,0.0,-0.15,-0.0011111111111111111,0.0022222222222222222,-0.0044444444444444444,-16.375,-14.25,-35.75,35,-0.05181884765625,0.00396728515625,0.0,0.9986572265625,359.9375,-0.4375,5.9375
1563492692.882041,359.9375,-0.4375,5.9375,-0.07,-1.01,9.75,0.0,0.0,-0.17,-0.0011111111111111111,0.0011111111111111111,0.0011111111111111111,-17.5625,-14.5625,-37.375,35,-0.05181884765625,0.00396728515625,0.0,0.9986572265625,359.9375,-0.4375,5.9375
1563492692.92034,359.9375,-0.4375,5.9375,-0.07,-1.01,9.75,-0.02,0.05,-0.15,0.0011111111111111111,0.0,0.0,-16.0625,-14.5625,-37.75,35,-0.05181884765625,0.00396728515625,0.0,0.9986572265625,359.9375,-0.4375,5.9375
1563492692.962212,359.9375,-0.4375,5.9375,-0.07,-1.01,9.75,-0.05,0.0,-0.16,-0.0022222222222222222,0.0022222222222222222,-0.0011111111111111111,-16.0625,-14.5625,-37.75,35,-0.05181884765625,0.00396728515625,0.0,0.9986572265625,359.9375,-0.4375,5.9375
1563492693.003083,359.9375,-0.4375,5.9375,-0.07,-1.01,9.75,-0.02,-0.01,-0.14,-0.0011111111111111111,0.0,-0.0011111111111111111,-17.875,-14.5625,-37.0,35,-0.05181884765625,0.00396728515625,0.0,0.9986572265625,359.9375,-0.4375,5.9375
1563492693.042624,359.9375,-0.4375,5.9375,-0.07,-1.01,9.75,-0.01,0.03,-0.17,0.0011111111111111111,0.0,0.0,-16.375,-14.5625,-36.5625,35,-0.05181884765625,0.00396728515625,0.0,0.9986572265625,359.9375,-0.4375,5.9375
1563492693.080943,359.9375,-0.4375,5.9375,-0.07,-1.01,9.75,-0.01,0.02,-0.15,0.0011111111111111111,-0.0011111111111111111,-0.0011111111111111111,-16.75,-15.375,-37.75,35,-0.05181884765625,0.00396728515625,0.0,0.9986572265625,359.9375,-0.4375,5.9375
1563492693.121131,359.9375,-0.4375,5.9375,-0.07,-1.01,9.75,0.02,-0.03,-0.16,-0.0022222222222222222,0.0,-0.0022222222222222222,-16.375,-14.25,-37.0,35,-0.05181884765625,0.00396728515625,0.0,0.9986572265625,359.9375,-0.4375,5.9375
1563492693.163041,359.9375,-0.4375,5.9375,-0.07,-1.01,9.75,-0.06,0.02,-0.14,0.0011111111111111111,0.0022222222222222222,-0.0022222222222222222,-16.375,-14.25,-37.0,35,-0.05181884765625,0.00396728515625,0.0,0.9986572265625,359.9375,-0.4375,5.9375
1563492693.203968,359.9375,-0.4375,5.9375,-0.07,-1.01,9.75,-0.07,0.07,-0.14,0.0011111111111111111,0.0011111111111111111,0.0033333333333333335,-17.875,-13.5,-36.1875,35,-0.05181884765625,0.00396728515625,0.0,0.9986572265625,359.9375,-0.4375,5.9375
1563492693.243406,359.9375,-0.4375,5.9375,-0.07,-1.01,9.75,0.02,0.0,-0.18,-0.0011111111111111111,-0.005555555555555556,0.0011111111111111111,-17.5625,-14.25,-37.75,35,-0.05181884765625,0.00396728515625,0.0,0.9986572265625,359.9375,-0.4375,5.9375
1563492693.281761,359.9375,-0.4375,5.9375,-0.07,-1.01,9.75,0.0,0.0,-0.13,-0.0011111111111111111,0.0011111111111111111,0.0,-16.375,-14.5625,-37.0,35,-0.05181884765625,0.00396728515625,0.0,0.9986572265625,359.9375,-0.4375,5.9375
1563492693.321915,359.9375,-0.4375,5.9375,-0.07,-1.01,9.75,-0.01,0.05,-0.14,0.0011111111111111111,0.0033333333333333335,0.0,-17.1875,-14.5625,-36.5625,35,-0.05181884765625,0.00396728515625,0.0,0.9986572265625,359.9375,-0.4375,5.9375
1563492693.36383,359.9375,-0.4375,5.9375,-0.07,-1.01,9.75,-0.04,-0.01,-0.19,0.0,0.0011111111111111111,-0.0022222222222222222,-17.1875,-14.5625,-36.5625,35,-0.05181884765625,0.00396728515625,0.0,0.9986572265625,359.9375,-0.4375,5.9375
1563492693.404672,359.9375,-0.4375,5.9375,-0.07,-1.01,9.75,-0.07,0.0,-0.18,0.0,0.0011111111111111111,-0.0022222222222222222,-16.75,-14.5625,-37.0,35,-0.05181884765625,0.00396728515625,0.0,0.9986572265625,359.9375,-0.4375,5.9375
1563492693.444144,359.9375,-0.4375,5.9375,-0.07,-1.01,9.75,0.01,0.01,-0.18,-0.0011111111111111111,0.0011111111111111111,0.0,-16.0625,-14.25,-36.1875,35,-0.05181884765625,0.00396728515625,0.0,0.9986572265625,359.9375,-0.4375,5.9375
1563492693.482571,359.9375,-0.4375,5.9375,-0.07,-1.01,9.75,0.02,0.01,-0.16,-0.0011111111111111111,0.0,0.0011111111111111111,-16.375,-15.0,-37.375,35,-0.05181884765625,0.00396728515625,0.0,0.9986572265625,359.9375,-0.4375,5.9375
1563492693.522724,359.9375,-0.4375,5.9375,-0.07,-1.01,9.75,-0.01,-0.01,-0.16,0.0011111111111111111,0.0044444444444444444,-0.0011111111111111111,-16.75,-15.375,-37.0,35,-0.05181884765625,0.00396728515625,0.0,0.9986572265625,359.9375,-0.4375,5.9375
1563492693.564603,359.9375,-0.4375,5.9375,-0.07,-1.01,9.75,-0.05,0.03,-0.16,0.0011111111111111111,0.0033333333333333335,0.0011111111111111111,-16.75,-15.375,-37.0,35,-0.05181884765625,0.00396728515625,0.0,0.9986572265625,359.9375,-0.4375,5.9375
1563492693.605578,359.9375,-0.4375,5.9375,-0.07,-1.01,9.75,-0.05,0.02,-0.16,-0.0022222222222222222,0.0,0.0,-16.75,-14.25,-37.0,35,-0.05181884765625,0.00396728515625,0.0,0.9986572265625,359.9375,-0.4375,5.9375
1563492693.644923,359.9375,-0.4375,5.9375,-0.07,-1.01,9.75,0.02,0.0,-0.15,0.0011111111111111111,0.0022222222222222222,0.0,-16.75,-13.875,-37.375,35,-0.05181884765625,0.00396728515625,0.0,0.9986572265625,359.9375,-0.4375,5.9375
1563492693.683359,359.9375,-0.4375,5.9375,-0.07,-1.01,9.75,0.02,0.01,-0.18,0.0011111111111111111,0.0011111111111111111,-0.0033333333333333335,-16.75,-14.25,-37.375,35,-0.05181884765625,0.00396728515625,0.0,0.9986572265625,359.9375,-0.4375,5.9375
1563492693.723514,359.9375,-0.4375,5.9375,-0.07,-1.01,9.75,0.0,0.02,-0.16,0.0011111111111111111,0.0011111111111111111,-0.0011111111111111111,-17.1875,-15.0,-37.375,35,-0.05181884765625,0.00396728515625,0.0,0.9986572265625,359.9375,-0.4375,5.9375
1563492693.767117,359.9375,-0.4375,5.9375,-0.07,-1.01,9.75,-0.03,0.01,-0.13,0.0,0.0044444444444444444,0.0,-17.1875,-15.0,-37.375,35,-0.05181884765625,0.00396728515625,0.0,0.9986572265625,359.9375,-0.4375,5.9375
1563492693.808076,359.9375,-0.4375,5.9375,-0.07,-1.01,9.75,-0.03,0.0,-0.13,-0.0011111111111111111,0.0,-0.0011111111111111111,-16.75,-15.0,-37.0,35,-0.05181884765625,0.00396728515625,0.0,0.9986572265625,359.9375,-0.4375,5.9375
1563492693.847486,359.9375,-0.4375,5.9375,-0.07,-1.01,9.75,0.0,0.02,-0.18,-0.0022222222222222222,-0.0011111111111111111,-0.0011111111111111111,-16.75,-15.0,-36.1875,35,-0.05181884765625,0.00396728515625,0.0,0.9986572265625,359.9375,-0.4375,5.9375
1563492693.88589,359.9375,-0.4375,5.9375,-0.07,-1.01,9.75,-0.03,0.0,-0.18,-0.0011111111111111111,-0.0011111111111111111,0.0033333333333333335,-17.5625,-15.75,-35.75,35,-0.05181884765625,0.00396728515625,0.0,0.9986572265625,359.9375,-0.4375,5.9375
1563492693.924275,359.9375,-0.4375,5.9375,-0.07,-1.01,9.75,0.0,0.0,-0.14,-0.0011111111111111111,-0.0044444444444444444,0.0022222222222222222,-16.75,-13.5,-37.0,35,-0.05181884765625,0.00396728515625,0.0,0.9986572265625,359.9375,-0.4375,5.9375
1563492693.966075,359.9375,-0.4375,5.9375,-0.07,-1.01,9.75,0.0,0.0,-0.18,0.0,-0.0011111111111111111,0.0,-16.75,-13.5,-37.0,35,-0.05181884765625,0.00396728515625,0.0,0.9986572265625,359.9375,-0.4375,5.9375
1563492694.007133,359.9375,-0.4375,5.9375,-0.07,-1.01,9.75,-0.02,0.0,-0.16,-0.0022222222222222222,-0.0022222222222222222,0.0,-16.75,-14.25,-37.0,35,-0.05181884765625,0.00396728515625,0.0,0.9986572265625,359.9375,-0.4375,5.9375
1563492694.046486,359.9375,-0.4375,5.9375,-0.07,-1.01,9.75,-0.03,0.0,-0.16,-0.0011111111111111111,-0.0033333333333333335,0.0011111111111111111,-17.1875,-15.0,-37.0,35,-0.05181884765625,0.00396728515625,0.0,0.9986572265625,359.9375,-0.4375,5.9375
1563492694.084928,359.9375,-0.4375,5.9375,-0.07,-1.01,9.75,-0.05,0.0,-0.12,-0.0022222222222222222,0.0011111111111111111,0.0022222222222222222,-16.375,-14.5625,-37.375,35,-0.05181884765625,0.00396728515625,0.0,0.9986572265625,359.9375,-0.4375,5.9375
1563492694.125066,359.9375,-0.4375,5.9375,-0.07,-1.01,9.75,0.03,0.0,-0.16,-0.0022222222222222222,-0.0011111111111111111,0.0011111111111111111,-16.75,-14.5625,-36.5625,35,-0.05181884765625,0.00396728515625,0.0,0.9986572265625,359.9375,-0.4375,5.9375
1563492694.166906,359.9375,-0.4375,5.9375,-0.07,-1.01,9.75,-0.01,0.03,-0.13,0.0011111111111111111,0.0,0.0022222222222222222,-16.75,-14.5625,-36.5625,35,-0.05181884765625,0.00396728515625,0.0,0.9986572265625,359.9375,-0.4375,5.9375
1563492694.207923,359.9375,-0.4375,5.9375,-0.07,-1.01,9.75,0.0,0.0,-0.15,-0.0022222222222222222,0.0022222222222222222,0.0022222222222222222,-16.375,-15.375,-37.0,35,-0.05181884765625,0.00396728515625,0.0,0.9986572265625,359.9375,-0.4375,5.9375
1563492694.247209,359.9375,-0.4375,5.9375,-0.07,-1.01,9.75,0.01,0.0,-0.12,-0.0011111111111111111,0.0011111111111111111,0.0011111111111111111,-16.75,-14.25,-36.1875,35,-0.05181884765625,0.00396728515625,0.0,0.9986572265625,359.9375,-0.4375,5.9375
1563492694.285698,359.9375,-0.4375,5.9375,-0.07,-1.01,9.75,0.0,0.01,-0.16,0.0,0.0033333333333333335,-0.0011111111111111111,-16.75,-15.0,-37.0,35,-0.05181884765625,0.00396728515625,0.0,0.9986572265625,359.9375,-0.4375,5.9375
1563492694.325853,359.9375,-0.4375,5.9375,-0.07,-1.01,9.75,0.0,0.01,-0.18,-0.0022222222222222222,0.0,-0.0022222222222222222,-16.75,-14.5625,-37.75,35,-0.05181884765625,0.00396728515625,0.0,0.9986572265625,359.9375,-0.4375,5.9375
1563492694.367764,359.9375,-0.4375,5.9375,-0.07,-1.01,9.75,-0.02,0.0,-0.15,0.0,0.0011111111111111111,-0.0011111111111111111,-16.75,-14.5625,-37.75,35,-0.05181884765625,0.00396728515625,0.0,0.9986572265625,359.9375,-0.4375,5.9375
1563492694.408603,359.9375,-0.4375,5.9375,-0.07,-1.01,9.75,-0.03,0.0,-0.14,-0.0011111111111111111,0.0,-0.0033333333333333335,-16.75,-13.875,-37.0,35,-0.05181884765625,0.00396728515625,0.0,0.9986572265625,359.9375,-0.4375,5.9375
1563492694.448031,359.9375,-0.4375,5.9375,-0.07,-1.01,9.75,0.01,0.01,-0.11,-0.0011111111111111111,0.0022222222222222222,-0.0011111111111111111,-16.0625,-15.0,-36.1875,35,-0.05181884765625,0.00396728515625,0.0,0.9986572265625,359.9375,-0.4375,5.9375
1563492694.486468,359.9375,-0.4375,5.9375,-0.07,-1.01,9.75,0.0,0.0,-0.13,0.0,-0.0011111111111111111,0.0011111111111111111,-16.375,-14.5625,-36.5625,35,-0.05181884765625,0.00396728515625,0.0,0.9986572265625,359.9375,-0.4375,5.9375
1563492694.526675,359.9375,-0.4375,5.9375,-0.07,-1.01,9.75,-0.03,0.0,-0.14,0.0011111111111111111,0.0044444444444444444,0.0011111111111111111,-16.75,-15.0,-37.75,35,-0.05181884765625,0.00396728515625,0.0,0.9986572265625,359.9375,-0.4375,5.9375
1563492694.568505,359.9375,-0.4375,5.9375,-0.07,-1.01,9.75,-0.02,0.0,-0.16,0.0,0.0,0.0,-16.75,-15.0,-37.75,35,-0.05181884765625,0.00396728515625,0.0,0.9986572265625,359.9375,-0.4375,5.9375
1563492694.609518,359.9375,-0.4375,5.9375,-0.07,-1.01,9.75,-0.03,0.01,-0.13,-0.0011111111111111111,-0.0022222222222222222,0.0,-16.75,-13.875,-36.1875,35,-0.05181884765625,0.00396728515625,0.0,0.9986572265625,359.9375,-0.4375,5.9375
1563492694.648899,359.9375,-0.4375,5.9375,-0.07,-1.01,9.75,-0.01,0.01,-0.18,-0.0011111111111111111,0.0011111111111111111,-0.0011111111111111111,-16.0625,-14.5625,-37.375,35,-0.05181884765625,0.00396728515625,0.0,0.9986572265625,359.9375,-0.4375,5.9375
1563492694.687266,359.9375,-0.4375,5.9375,-0.07,-1.01,9.75,0.0,0.0,-0.17,-0.0011111111111111111,0.0022222222222222222,0.0,-16.75,-15.0,-36.5625,35,-0.05181884765625,0.00396728515625,0.0,0.9986572265625,359.9375,-0.4375,5.9375
1563492694.727461,359.9375,-0.4375,5.9375,-0.07,-1.01,9.75,0.0,0.0,-0.13,0.0,-0.0022222222222222222,0.0011111111111111111,-16.75,-14.5625,-38.1875,35,-0.05181884765625,0.00396728515625,0.0,0.9986572265625,359.9375,-0.4375,5.9375
1563492694.771097,359.9375,-0.4375,5.9375,-0.07,-1.01,9.75,-0.02,0.0,-0.13,0.0,0.0,0.0011111111111111111,-16.75,-14.5625,-38.1875,35,-0.05181884765625,0.00396728515625,0.0,0.9986572265625,359.9375,-0.4375,5.9375
1563492694.81215,359.9375,-0.4375,5.9375,-0.07,-1.01,9.75,-0.01,0.02,-0.15,0.0011111111111111111,-0.0011111111111111111,0.0,-16.75,-14.25,-37.0,35,-0.05181884765625,0.00396728515625,0.0,0.9986572265625,359.9375,-0.4375,5.9375
1563492694.851391,359.9375,-0.4375,5.9375,-0.07,-1.01,9.75,0.0,0.0,-0.13,0.0,0.0033333333333333335,-0.0011111111111111111,-16.75,-14.5625,-36.1875,35,-0.05181884765625,0.00396728515625,0.0,0.9986572265625,359.9375,-0.4375,5.9375
1563492694.889846,359.9375,-0.4375,5.9375,-0.07,-1.01,9.75,0.0,0.0,-0.17,-0.0022222222222222222,0.0011111111111111111,0.0011111111111111111,-15.6875,-14.5625,-36.5625,35,-0.05181884765625,0.00396728515625,0.0,0.9986572265625,359.9375,-0.4375,5.9375
1563492694.928321,359.9375,-0.4375,5.9375,-0.07,-1.01,9.75,0.0,0.02,-0.16,0.0,-0.0011111111111111111,-0.0022222222222222222,-16.375,-15.375,-37.0,35,-0.05181884765625,0.00396728515625,0.0,0.9986572265625,359.9375,-0.4375,5.9375
1563492694.970143,359.9375,-0.4375,5.9375,-0.07,-1.01,9.75,-0.03,0.0,-0.19,-0.0011111111111111111,0.0011111111111111111,-0.0033333333333333335,-16.375,-15.375,-37.0,35,-0.05181884765625,0.00396728515625,0.0,0.9986572265625,359.9375,-0.4375,5.9375
1563492695.011119,359.9375,-0.4375,5.9375,-0.07,-1.01,9.75,-0.04,0.0,-0.14,-0.0011111111111111111,0.0,-0.0011111111111111111,-17.875,-13.875,-37.0,35,-0.05181884765625,0.00396728515625,0.0,0.9986572265625,359.9375,-0.4375,5.9375
1563492695.050483,359.9375,-0.4375,5.9375,-0.07,-1.01,9.75,-0.02,0.01,-0.16,-0.0011111111111111111,-0.0033333333333333335,-0.0011111111111111111,-17.1875,-14.25,-37.0,35,-0.05181884765625,0.00396728515625,0.0,0.9986572265625,359.9375,-0.4375,5.9375
1563492695.088988,359.9375,-0.4375,5.9375,-0.07,-1.01,9.75,0.02,0.01,-0.15,-0.0011111111111111111,0.0011111111111111111,0.0,-16.75,-14.25,-37.0,35,-0.05181884765625,0.00396728515625,0.0,0.9986572265625,359.9375,-0.4375,5.9375
1563492695.129108,359.9375,-0.4375,5.9375,-0.07,-1.01,9.75,0.0,0.0,-0.14,0.0,0.0044444444444444444,-0.0011111111111111111,-16.75,-15.375,-37.75,35,-0.05181884765625,0.00396728515625,0.0,0.9986572265625,359.9375,-0.4375,5.9375
1563492695.170975,359.9375,-0.4375,5.9375,-0.07,-1.01,9.75,-0.03,0.0,-0.14,0.0,0.0011111111111111111,-0.0011111111111111111,-16.75,-15.375,-37.75,35,-0.05181884765625,0.00396728515625,0.0,0.9986572265625,359.9375,-0.4375,5.9375
1563492695.212048,359.9375,-0.4375,5.9375,-0.07,-1.01,9.75,-0.03,0.01,-0.17,0.0,0.0033333333333333335,-0.0022222222222222222,-16.0625,-14.5625,-36.5625,35,-0.05181884765625,0.00396728515625,0.0,0.9986572265625,359.9375,-0.4375,5.9375
1563492695.251282,359.9375,-0.4375,5.9375,-0.07,-1.01,9.75,0.0,-0.01,-0.13,-0.0011111111111111111,0.0,-0.0011111111111111111,-17.1875,-15.0,-37.375,35,-0.05181884765625,0.00396728515625,0.0,0.9986572265625,359.9375,-0.4375,5.9375
1563492695.289712,359.9375,-0.4375,5.9375,-0.07,-1.01,9.75,0.0,0.0,-0.15,0.0022222222222222222,0.0033333333333333335,-0.0033333333333333335,-17.1875,-15.0,-36.1875,35,-0.05181884765625,0.00396728515625,0.0,0.9986572265625,359.9375,-0.4375,5.9375
1563492695.329871,359.9375,-0.4375,5.9375,-0.07,-1.01,9.75,-0.03,0.0,-0.15,0.0011111111111111111,0.0022222222222222222,0.0022222222222222222,-16.75,-14.25,-37.375,35,-0.05181884765625,0.00396728515625,0.0,0.9986572265625,359.9375,-0.4375,5.9375
1563492695.371707,359.9375,-0.4375,5.9375,-0.07,-1.01,9.75,-0.02,0.03,-0.08,0.0022222222222222222,-0.0033333333333333335,0.0022222222222222222,-16.75,-14.25,-37.375,35,-0.05181884765625,0.00396728515625,0.0,0.9986572265625,359.9375,-0.4375,5.9375
1563492695.412792,359.9375,-0.4375,5.9375,-0.07,-1.01,9.75,0.02,0.01,-0.15,-0.0033333333333333335,0.0011111111111111111,-0.0022222222222222222,-17.5625,-14.5625,-36.5625,35,-0.05181884765625,0.00396728515625,0.0,0.9986572265625,359.9375,-0.4375,5.9375
1563492695.452189,359.9375,-0.4375,5.9375,-0.07,-1.01,9.75,0.01,-0.01,-0.12,0.0,0.0011111111111111111,0.0011111111111111111,-16.0625,-14.5625,-36.1875,35,-0.05181884765625,0.00396728515625,0.0,0.9986572265625,359.9375,-0.4375,5.9375
1563492695.490526,359.9375,-0.4375,5.9375,-0.07,-1.01,9.75,0.0,0.01,-0.15,0.0022222222222222222,-0.0011111111111111111,0.0,-16.75,-14.5625,-37.375,35,-0.05181884765625,0.00396728515625,0.0,0.9986572265625,359.9375,-0.4375,5.9375
1563492695.53075,359.9375,-0.4375,5.9375,-0.07,-1.01,9.75,0.02,0.02,-0.16,-0.0011111111111111111,-0.0011111111111111111,0.0,-17.5625,-15.375,-36.1875,35,-0.05181884765625,0.00396728515625,0.0,0.9986572265625,359.9375,-0.4375,5.9375
1563492695.572587,359.9375,-0.4375,5.9375,-0.07,-1.01,9.75,-0.06,0.0,-0.13,0.0,0.0022222222222222222,-0.0011111111111111111,-17.5625,-15.375,-36.1875,35,-0.05181884765625,0.00396728515625,0.0,0.9986572265625,359.9375,-0.4375,5.9375
1563492695.613571,359.9375,-0.4375,5.9375,-0.07,-1.01,9.75,-0.03,0.01,-0.15,0.0,0.0033333333333333335,0.0011111111111111111,-15.6875,-14.5625,-34.875,35,-0.05181884765625,0.00396728515625,0.0,0.9986572265625,359.9375,-0.4375,5.9375
1563492695.652899,359.9375,-0.4375,5.9375,-0.07,-1.01,9.75,0.01,0.01,-0.11,-0.0011111111111111111,-0.0011111111111111111,0.0,-17.1875,-15.0,-37.0,35,-0.05181884765625,0.00396728515625,0.0,0.9986572265625,359.9375,-0.4375,5.9375
1563492695.691354,359.9375,-0.4375,5.9375,-0.07,-1.01,9.75,-0.04,0.0,-0.14,-0.0011111111111111111,-0.0011111111111111111,0.0,-17.1875,-15.0,-37.375,35,-0.05181884765625,0.00396728515625,0.0,0.9986572265625,359.9375,-0.4375,5.9375
1563492695.731563,359.9375,-0.4375,5.9375,-0.07,-1.01,9.75,-0.01,0.0,-0.17,-0.0011111111111111111,-0.0022222222222222222,0.0011111111111111111,-16.0625,-14.25,-37.375,35,-0.05181884765625,0.00396728515625,0.0,0.9986572265625,359.9375,-0.4375,5.9375
1563492695.775239,359.9375,-0.4375,5.9375,-0.07,-1.01,9.75,0.0,0.0,-0.19,0.0011111111111111111,-0.0011111111111111111,0.0011111111111111111,-16.0625,-14.25,-37.375,35,-0.05181884765625,0.00396728515625,0.0,0.9986572265625,359.9375,-0.4375,5.9375
1563492695.81607,359.9375,-0.4375,5.9375,-0.07,-1.01,9.75,-0.02,0.01,-0.14,0.0022222222222222222,0.0,-0.0011111111111111111,-17.1875,-14.25,-36.5625,35,-0.05181884765625,0.00396728515625,0.0,0.9986572265625,359.9375,-0.4375,5.9375
1563492695.855593,359.9375,-0.4375,5.9375,-0.07,-1.01,9.75,-0.04,0.0,-0.17,0.0,0.0022222222222222222,-0.0011111111111111111,-17.5625,-14.5625,-37.0,35,-0.05181884765625,0.00396728515625,0.0,0.9986572265625,359.9375,-0.4375,5.9375
1563492695.894007,359.9375,-0.4375,5.9375,-0.07,-1.01,9.75,0.0,0.0,-0.18,0.0011111111111111111,-0.0022222222222222222,0.0011111111111111111,-16.375,-13.875,-36.1875,35,-0.05181884765625,0.00396728515625,0.0,0.9986572265625,359.9375,-0.4375,5.9375
1563492695.932377,359.9375,-0.4375,5.9375,-0.07,-1.01,9.75,0.02,0.0,-0.14,0.0011111111111111111,0.0033333333333333335,0.005555555555555556,-17.5625,-14.5625,-35.75,35,-0.05181884765625,0.00396728515625,0.0,0.9986572265625,359.9375,-0.4375,5.9375
1563492695.974265,359.9375,-0.4375,5.9375,-0.07,-1.01,9.75,0.0,-0.02,-0.12,0.0022222222222222222,0.0011111111111111111,0.0044444444444444444,-17.5625,-14.5625,-35.75,35,-0.05181884765625,0.00396728515625,0.0,0.9986572265625,359.9375,-0.4375,5.9375
1563492696.014813,359.9375,-0.4375,5.9375,-0.07,-1.01,9.75,0.01,-0.02,-0.09,0.0077777777777777776,0.0077777777777777776,0.0044444444444444444,-16.375,-15.0,-36.1875,35,-0.05181884765625,0.00396728515625,0.0,0.9986572265625,359.9375,-0.4375,5.9375
1563492696.054135,359.9375,-0.4375,5.875,-0.07,-1.01,9.75,0.01,-0.14,-0.19,-0.0033333333333333335,0.0022222222222222222,-0.0033333333333333335,-16.375,-14.5625,-36.1875,35,-0.05169677734375,0.00396728515625,0.0,0.9986572265625,359.9375,-0.4375,5.875
1563492696.092585,359.9375,-0.4375,5.875,-0.07,-1.01,9.75,-0.08,0.03,-0.13,-0.0011111111111111111,-0.0011111111111111111,-0.005555555555555556,-17.1875,-14.5625,-37.0,35,-0.05169677734375,0.00396728515625,0.0,0.9986572265625,359.9375,-0.4375,5.875
1563492696.133216,359.9375,-0.4375,5.875,-0.07,-1.01,9.75,-0.04,-0.08,-0.11,0.0011111111111111111,-0.0011111111111111111,0.0044444444444444444,-15.6875,-14.5625,-38.5625,35,-0.05169677734375,0.00396728515625,0.0,0.9986572265625,359.9375,-0.4375,5.875
1563492696.17506,359.9375,-0.4375,5.875,-0.07,-1.01,9.75,0.02,0.01,-0.16,-0.0011111111111111111,-0.0033333333333333335,-0.0011111111111111111,-15.6875,-14.5625,-38.5625,35,-0.05169677734375,0.00396728515625,0.0,0.9986572265625,359.9375,-0.4375,5.875
1563492696.216119,359.9375,-0.4375,5.875,-0.07,-1.01,9.75,0.01,0.01,-0.16,0.0,0.0,-0.006666666666666667,-17.5625,-14.5625,-37.0,35,-0.05169677734375,0.00396728515625,0.0,0.9986572265625,359.9375,-0.4375,5.875
1563492696.255408,359.9375,-0.4375,5.875,-0.07,-1.01,9.75,-0.11,-0.01,-0.16,0.0011111111111111111,-0.0011111111111111111,0.0022222222222222222,-17.5625,-14.25,-37.0,35,-0.05169677734375,0.00396728515625,0.0,0.9986572265625,359.9375,-0.4375,5.875
1563492696.293885,359.9375,-0.4375,5.875,-0.07,-1.01,9.75,-0.07,0.05,-0.16,-0.0011111111111111111,-0.0011111111111111111,0.0022222222222222222,-17.1875,-14.5625,-35.375,35,-0.05169677734375,0.00396728515625,0.0,0.9986572265625,359.9375,-0.4375,5.875
1563492696.334016,359.9375,-0.4375,5.875,-0.07,-1.01,9.75,0.03,0.04,-0.11,-0.0022222222222222222,0.0,0.0011111111111111111,-16.75,-14.25,-37.375,35,-0.05169677734375,0.00396728515625,0.0,0.9986572265625,359.9375,-0.4375,5.875
1563492696.375874,359.9375,-0.4375,5.875,-0.07,-1.01,9.75,0.01,0.04,-0.13,0.0011111111111111111,0.0,0.0,-16.75,-14.25,-37.375,35,-0.05169677734375,0.00396728515625,0.0,0.9986572265625,359.9375,-0.4375,5.875
1563492696.416926,359.9375,-0.4375,5.875,-0.07,-1.01,9.75,-0.04,0.02,-0.13,0.0011111111111111111,0.0022222222222222222,-0.0011111111111111111,-17.5625,-14.5625,-37.0,35,-0.05169677734375,0.00396728515625,0.0,0.9986572265625,359.9375,-0.4375,5.875
1563492696.456162,359.9375,-0.4375,5.875,-0.07,-1.01,9.75,-0.04,0.0,-0.18,-0.0011111111111111111,0.0011111111111111111,-0.0022222222222222222,-16.375,-14.25,-36.1875,35,-0.05169677734375,0.00396728515625,0.0,0.9986572265625,359.9375,-0.4375,5.875
1563492696.494686,359.9375,-0.4375,5.875,-0.07,-1.01,9.75,-0.01,0.0,-0.16,0.0,-0.0022222222222222222,0.0022222222222222222,-16.75,-14.5625,-37.375,35,-0.05169677734375,0.00396728515625,0.0,0.9986572265625,359.9375,-0.4375,5.875
1563492696.534854,359.9375,-0.4375,5.875,-0.07,-1.01,9.75,0.0,0.01,-0.15,0.0011111111111111111,-0.0011111111111111111,0.0022222222222222222,-17.1875,-15.0,-37.75,35,-0.05169677734375,0.00396728515625,0.0,0.9986572265625,359.9375,-0.4375,5.875
1563492696.576676,359.9375,-0.4375,5.875,-0.07,-1.01,9.75,-0.03,0.0,-0.14,0.0011111111111111111,-0.0011111111111111111,0.0,-17.1875,-15.0,-37.75,35,-0.05169677734375,0.00396728515625,0.0,0.9986572265625,359.9375,-0.4375,5.875
1563492696.617749,359.9375,-0.4375,5.875,-0.07,-1.01,9.75,-0.07,0.02,-0.16,0.0,-0.0011111111111111111,0.0011111111111111111,-16.75,-13.875,-36.1875,35,-0.05169677734375,0.00396728515625,0.0,0.9986572265625,359.9375,-0.4375,5.875
1563492696.657043,359.9375,-0.4375,5.875,-0.07,-1.01,9.75,0.01,0.02,-0.15,0.0,0.0,0.0011111111111111111,-16.375,-15.75,-36.1875,35,-0.05169677734375,0.00396728515625,0.0,0.9986572265625,359.9375,-0.4375,5.875
1563492696.695551,359.9375,-0.4375,5.875,-0.07,-1.01,9.75,0.0,0.02,-0.13,0.0,0.0022222222222222222,0.0022222222222222222,-16.375,-14.5625,-37.75,35,-0.05169677734375,0.00396728515625,0.0,0.9986572265625,359.9375,-0.4375,5.875
1563492696.735639,359.9375,-0.4375,5.875,-0.07,-1.01,9.75,-0.02,0.02,-0.16,0.0,0.0,-0.0011111111111111111,-16.375,-15.0,-37.0,35,-0.05169677734375,0.00396728515625,0.0,0.9986572265625,359.9375,-0.4375,5.875
1563492696.779342,359.9375,-0.4375,5.875,-0.07,-1.01,9.75,-0.03,0.02,-0.18,0.0011111111111111111,0.0,0.0,-16.375,-15.0,-37.0,35,-0.05169677734375,0.00396728515625,0.0,0.9986572265625,359.9375,-0.4375,5.875
1563492696.820267,359.9375,-0.4375,5.875,-0.07,-1.01,9.75,0.02,0.0,-0.13,0.0,0.0,0.0011111111111111111,-16.0625,-13.5,-37.0,35,-0.05169677734375,0.00396728515625,0.0,0.9986572265625,359.9375,-0.4375,5.875
1563492696.859575,359.9375,-0.4375,5.875,-0.07,-1.01,9.75,0.0,0.0,-0.16,0.0011111111111111111,0.0011111111111111111,0.0011111111111111111,-16.375,-15.0,-35.75,35,-0.05169677734375,0.00396728515625,0.0,0.9986572265625,359.9375,-0.4375,5.875
1563492696.897986,359.9375,-0.4375,5.875,-0.07,-1.01,9.75,-0.03,0.0,-0.17,0.0,-0.0011111111111111111,0.0,-16.75,-15.375,-37.75,35,-0.05169677734375,0.00396728515625,0.0,0.9986572265625,359.9375,-0.4375,5.875
1563492696.936471,359.9375,-0.4375,5.875,-0.07,-1.01,9.75,-0.03,0.02,-0.14,-0.0011111111111111111,-0.0011111111111111111,-0.0011111111111111111,-17.1875,-15.375,-37.0,35,-0.05169677734375,0.00396728515625,0.0,0.9986572265625,359.9375,-0.4375,5.875
1563492696.978288,359.9375,-0.4375,5.875,-0.07,-1.01,9.75,-0.01,0.0,-0.15,-0.0011111111111111111,0.0022222222222222222,0.0,-17.1875,-15.375,-37.0,35,-0.05169677734375,0.00396728515625,0.0,0.9986572265625,359.9375,-0.4375,5.875
1563492697.019311,359.9375,-0.4375,5.875,-0.07,-1.01,9.75,-0.02,0.01,-0.18,0.0,0.0022222222222222222,-0.0011111111111111111,-16.75,-13.875,-37.0,35,-0.05169677734375,0.00396728515625,0.0,0.9986572265625,359.9375,-0.4375,5.875
1563492697.058629,359.9375,-0.4375,5.875,-0.07,-1.01,9.75,-0.03,0.0,-0.16,0.0,0.0,0.0022222222222222222,-16.0625,-14.25,-36.5625,35,-0.05169677734375,0.00396728515625,0.0,0.9986572265625,359.9375,-0.4375,5.875
1563492697.097002,359.9375,-0.4375,5.875,-0.07,-1.01,9.75,-0.04,0.0,-0.16,0.0,-0.0011111111111111111,0.0022222222222222222,-17.1875,-15.0,-37.0,35,-0.05169677734375,0.00396728515625,0.0,0.9986572265625,359.9375,-0.4375,5.875
1563492697.137269,359.9375,-0.4375,5.875,-0.07,-1.01,9.75,-0.04,0.0,-0.15,0.0,-0.0022222222222222222,0.0,-16.75,-15.0,-37.375,35,-0.05169677734375,0.00396728515625,0.0,0.9986572265625,359.9375,-0.4375,5.875
1563492697.179165,359.9375,-0.4375,5.875,-0.07,-1.01,9.75,-0.04,0.02,-0.2,0.0022222222222222222,-0.0011111111111111111,0.0011111111111111111,-16.75,-15.0,-37.375,35,-0.05169677734375,0.00396728515625,0.0,0.9986572265625,359.9375,-0.4375,5.875
1563492697.220239,359.9375,-0.4375,5.875,-0.07,-1.01,9.75,-0.09,0.06,-0.15,-0.0011111111111111111,0.0011111111111111111,0.0,-16.0625,-14.25,-35.75,35,-0.05169677734375,0.00396728515625,0.0,0.9986572265625,359.9375,-0.4375,5.875
1563492697.259562,359.9375,-0.4375,5.875,-0.07,-1.01,9.75,-0.1,0.01,-0.16,-0.0011111111111111111,0.0,-0.0011111111111111111,-17.1875,-14.5625,-36.5625,35,-0.05169677734375,0.00396728515625,0.0,0.9986572265625,359.9375,-0.4375,5.875
